
Integration time [ms]:  32,000
Averaging Nr. [scans]: 5
Smoothing Nr. [pixels]: 0
Data measured with spectrometer [name]: 1804343U2
Wave   ;Sample   ;Dark     ;Reference;Scope
[nm]   ;[counts] ;[counts] ;[counts] 

318,006;  -20,200;   11,200;    0,000
318,025;   25,800;   30,400;    0,000
318,044;   23,800;   24,800;    0,000
318,063;  -13,000;  -21,800;    0,000
318,082;   22,800;  -11,400;    0,000
318,102;   -8,200;   36,000;    0,000
318,121;   37,400;   18,800;    0,000
318,140;   10,400;   25,200;    0,000
318,159;  -25,000;    5,800;    0,000
318,179;   -2,000;   -8,800;    0,000
318,198;   23,000;   20,000;    0,000
318,217;    9,600;   15,400;    0,000
318,236;  -21,600;   -7,600;    0,000
318,255;   28,200;   21,400;    0,000
318,275;   20,600;    8,800;    0,000
318,294;  -15,400;  -35,800;    0,000
318,313;   15,200;   46,400;    0,000
318,332;   -9,800;  -10,000;    0,000
318,351;   11,600;   13,400;    0,000
318,370;    6,000;  -42,000;    0,000
318,390;    7,800;   -5,200;    0,000
318,409;   -1,800;   -5,400;    0,000
318,428;   17,200;  -12,400;    0,000
318,447;   -1,800;   -9,600;    0,000
318,466;   -3,800;   -7,400;    0,000
318,485;  -37,800;  -24,400;    0,000
318,505;    4,000;   13,400;    0,000
318,524;   -8,600;  -16,200;    0,000
318,543;    7,000;   40,200;    0,000
318,562;  -19,000;   -6,800;    0,000
318,581;   24,200;    1,400;    0,000
318,600;   19,600;    1,800;    0,000
318,620;   37,200;   32,400;    0,000
318,639;  -22,800;  -37,800;    0,000
318,658;   24,200;    2,400;    0,000
318,677;    1,800;    2,400;    0,000
318,696;   12,400;   17,800;    0,000
318,715;  -39,600;    2,400;    0,000
318,734;  -10,000;    1,400;    0,000
318,754;  -57,400;   21,000;    0,000
318,773;    8,800;   15,600;    0,000
318,792;  -35,000;   17,800;    0,000
318,811;   22,200;   22,400;    0,000
318,830;  -28,800;  -30,600;    0,000
318,849;   57,000;   44,400;    0,000
318,868;   11,000;  -39,400;    0,000
318,887;    3,000;   -1,600;    0,000
318,906;  -31,200;  -45,800;    0,000
318,926;    3,200;   26,600;    0,000
318,945;  -20,200;   23,400;    0,000
318,964;   16,600;   -7,000;    0,000
318,983;   -5,600;  -15,600;    0,000
319,002;   39,400;   15,600;    0,000
319,021;   -5,200;    4,600;    0,000
319,040;    0,800;   22,000;    0,000
319,059;   11,600;    3,400;    0,000
319,078;   18,800;   13,000;    0,000
319,097;   -6,400;   36,200;    0,000
319,117;    1,000;  -14,000;    0,000
319,136;  -27,200;    9,800;    0,000
319,155;  -24,400;    0,200;    0,000
319,174;    0,800;    0,200;    0,000
319,193;    5,800;  -12,000;    0,000
319,212;   14,000;    1,400;    0,000
319,231;   21,000;   13,400;    0,000
319,250;  -23,800;    6,400;    0,000
319,269;   -1,800;   28,600;    0,000
319,288;  -22,200;  -18,400;    0,000
319,307;    4,000;   17,400;    0,000
319,326;  -12,000;   35,600;    0,000
319,345;   86,400;   15,600;    0,000
319,364;   10,600;  -14,000;    0,000
319,384;   57,200;   40,800;    0,000
319,403;  -12,200;    0,400;    0,000
319,422;   35,000;   28,600;    0,000
319,441;   21,200;    7,000;    0,000
319,460;  -19,000;   27,600;    0,000
319,479;  -10,400;   18,400;    0,000
319,498;   38,600;   12,000;    0,000
319,517;  -20,200;   15,200;    0,000
319,536;   26,800;   13,800;    0,000
319,555;    1,800;  -28,600;    0,000
319,574;   21,000;   -6,800;    0,000
319,593;   23,200;   30,800;    0,000
319,612;   19,600;   29,400;    0,000
319,631;  -17,400;    9,000;    0,000
319,650;   12,400;   12,000;    0,000
319,669;    1,000;    1,800;    0,000
319,688;   52,000;   45,600;    0,000
319,707;   12,600;  -14,400;    0,000
319,726;   27,600;    9,400;    0,000
319,745;   -2,800;   -8,400;    0,000
319,764;   26,000;    7,200;    0,000
319,783;    3,600;   11,200;    0,000
319,802;   17,400;  -44,800;    0,000
319,821;   14,800;    0,600;    0,000
319,840;   -5,800;  -10,200;    0,000
319,859;   13,400;   28,400;    0,000
319,878;   20,200;   31,200;    0,000
319,897;  -12,000;   36,000;    0,000
319,916;    5,200;    2,200;    0,000
319,935;    6,600;   -0,600;    0,000
319,954;   61,400;    8,600;    0,000
319,973;    3,000;   20,400;    0,000
319,992;  -13,000;   -1,200;    0,000
320,011;    4,600;    8,400;    0,000
320,030;    7,600;   16,400;    0,000
320,049;   -0,200;   37,600;    0,000
320,068;    0,600;  -24,000;    0,000
320,087;  -12,800;    9,800;    0,000
320,106;   55,200;   23,000;    0,000
320,125;   -5,200;    1,000;    0,000
320,144;   21,600;   -5,200;    0,000
320,163;   30,200;   27,400;    0,000
320,182;    0,400;   49,600;    0,000
320,201;    2,200;   52,400;    0,000
320,220;   27,600;  -22,400;    0,000
320,239;   -0,200;   26,800;    0,000
320,257;   32,800;   33,400;    0,000
320,276;   11,400;   -7,400;    0,000
320,295;   22,400;   -0,200;    0,000
320,314;  -19,200;  -24,400;    0,000
320,333;   44,800;   43,000;    0,000
320,352;    1,000;   14,800;    0,000
320,371;   14,000;   55,000;    0,000
320,390;  -22,400;    7,200;    0,000
320,409;   36,200;   40,600;    0,000
320,428;   -2,600;  -12,400;    0,000
320,447;   13,600;   36,800;    0,000
320,466;  -10,600;   19,000;    0,000
320,485;   44,200;   37,200;    0,000
320,504;   -5,400;  -20,000;    0,000
320,522;   31,600;   -1,800;    0,000
320,541;    8,400;   24,000;    0,000
320,560;   16,200;   41,800;    0,000
320,579;   22,000;   19,400;    0,000
320,598;   56,600;   71,000;    0,000
320,617;   86,800;   96,200;    0,000
320,636;  151,600;  169,400;    0,000
320,655;  128,400;  169,800;    0,000
320,674;  122,400;  102,200;    0,000
320,693;   68,000;   31,600;    0,000
320,711;   37,200;   13,400;    0,000
320,730;  -32,200;    6,000;    0,000
320,749;   38,400;   35,200;    0,000
320,768;   18,000;   29,600;    0,000
320,787;   25,400;    7,400;    0,000
320,806;   -4,200;   -2,400;    0,000
320,825;   47,000;   21,000;    0,000
320,844;    6,400;   -7,600;    0,000
320,862;   11,400;   -5,200;    0,000
320,881;  -33,800;   -3,800;    0,000
320,900;   17,400;   15,600;    0,000
320,919;   10,800;  -13,000;    0,000
320,938;   25,200;   39,200;    0,000
320,957;   19,200;   20,200;    0,000
320,976;   23,800;   23,800;    0,000
320,994;  -12,600;   -6,200;    0,000
321,013;    6,800;    1,400;    0,000
321,032;    2,800;   19,000;    0,000
321,051;   22,200;   32,000;    0,000
321,070;   24,000;   47,000;    0,000
321,089;   33,800;    8,400;    0,000
321,108;  -17,800;    6,800;    0,000
321,126;   23,800;   -8,000;    0,000
321,145;   24,000;  -39,200;    0,000
321,164;   -2,200;   16,800;    0,000
321,183;  -25,000;   -8,800;    0,000
321,202;   37,000;    1,800;    0,000
321,221;  -14,800;   -3,400;    0,000
321,239;   44,800;    5,800;    0,000
321,258;    2,800;    9,600;    0,000
321,277;   27,800;   11,200;    0,000
321,296;   15,800;    1,400;    0,000
321,315;   35,600;   20,800;    0,000
321,333;    4,400;  -20,800;    0,000
321,352;  -12,400;    8,200;    0,000
321,371;  -46,400;    9,600;    0,000
321,390;   28,000;    4,400;    0,000
321,409;   16,400;   35,600;    0,000
321,427;   43,400;   19,200;    0,000
321,446;  -40,400;   17,400;    0,000
321,465;   55,000;   37,400;    0,000
321,484;  -41,000;  -17,800;    0,000
321,503;   46,000;   31,400;    0,000
321,521;    1,400;   23,400;    0,000
321,540;   44,400;    9,400;    0,000
321,559;  -21,600;  -31,000;    0,000
321,578;   -3,000;    2,000;    0,000
321,597;  -14,600;   -8,200;    0,000
321,615;    3,600;   27,400;    0,000
321,634;   17,600;    4,800;    0,000
321,653;   12,000;   40,200;    0,000
321,672;   16,000;    8,400;    0,000
321,690;   -6,000;   15,400;    0,000
321,709;   12,800;  -36,600;    0,000
321,728;   17,400;  -22,400;    0,000
321,747;  -20,400;    8,200;    0,000
321,765;   34,400;   -1,600;    0,000
321,784;  -10,600;    5,400;    0,000
321,803;   14,600;   17,600;    0,000
321,822;    8,600;   16,000;    0,000
321,840;   38,000;   19,200;    0,000
321,859;   -7,000;  -12,000;    0,000
321,878;   21,200;   11,400;    0,000
321,897;    9,000;   21,600;    0,000
321,915;   25,800;   14,000;    0,000
321,934;   34,200;   17,400;    0,000
321,953;   42,400;   -5,200;    0,000
321,972;   -6,200;   -4,200;    0,000
321,990;   71,000;   17,000;    0,000
322,009;    1,600;  -21,400;    0,000
322,028;   10,600;   50,000;    0,000
322,046;  -10,800;  -15,800;    0,000
322,065;   46,400;   -5,200;    0,000
322,084;   -3,400;   -1,600;    0,000
322,103;  -13,400;   18,200;    0,000
322,121;   12,200;   23,800;    0,000
322,140;    8,000;   12,400;    0,000
322,159;   11,800;   30,200;    0,000
322,177;   23,400;   33,400;    0,000
322,196;    6,600;  -14,800;    0,000
322,215;   25,200;   31,000;    0,000
322,234;    4,000;    9,800;    0,000
322,252;   45,200;  -11,800;    0,000
322,271;   -9,000;   34,200;    0,000
322,290;   70,800;   31,400;    0,000
322,308;   -3,200;    9,800;    0,000
322,327;   46,600;   12,800;    0,000
322,346;   18,400;  -19,400;    0,000
322,364;   17,600;    6,800;    0,000
322,383;   17,400;    9,200;    0,000
322,402;   17,800;   11,200;    0,000
322,420;   11,400;    0,800;    0,000
322,439;   32,600;    5,400;    0,000
322,458;   -1,200;   49,000;    0,000
322,476;   47,400;   20,200;    0,000
322,495;   -8,200;   -3,800;    0,000
322,514;   56,400;   23,600;    0,000
322,532;   -1,600;   26,400;    0,000
322,551;   48,800;   31,200;    0,000
322,570;   56,200;   35,400;    0,000
322,588;   16,600;   29,200;    0,000
322,607;   27,200;   33,800;    0,000
322,626;    0,400;  -29,200;    0,000
322,644;    6,800;    4,600;    0,000
322,663;   -0,800;   52,600;    0,000
322,681;   24,000;  -26,200;    0,000
322,700;   59,400;   70,000;    0,000
322,719;    1,000;  -16,200;    0,000
322,737;   29,400;   13,800;    0,000
322,756;  -25,000;    1,400;    0,000
322,775;   51,000;   27,400;    0,000
322,793;   16,600;   17,400;    0,000
322,812;   30,000;   35,400;    0,000
322,831;   23,600;   51,400;    0,000
322,849;   24,600;   25,000;    0,000
322,868;   16,400;   47,600;    0,000
322,886;   31,800;   30,200;    0,000
322,905;    9,800;   49,400;    0,000
322,924;   35,000;   30,200;    0,000
322,942;  -10,000;   -6,000;    0,000
322,961;   25,600;   17,400;    0,000
322,979;   36,400;    5,600;    0,000
322,998;    9,600;   19,200;    0,000
323,017;   28,600;  -19,200;    0,000
323,035;   54,400;   15,400;    0,000
323,054;   28,400;   22,000;    0,000
323,072;   56,600;   46,400;    0,000
323,091;   19,000;   56,000;    0,000
323,110;   14,800;   49,400;    0,000
323,128;   37,600;   52,200;    0,000
323,147;   33,200;   52,400;    0,000
323,165;   32,200;   46,400;    0,000
323,184;   77,800;   88,800;    0,000
323,202;   50,600;   12,600;    0,000
323,221;   32,400;   21,200;    0,000
323,240;   24,400;   64,200;    0,000
323,258;   93,800;   85,600;    0,000
323,277;   -2,200;   49,200;    0,000
323,295;   50,400;   29,600;    0,000
323,314;   34,600;   26,200;    0,000
323,332;   14,800;   61,400;    0,000
323,351;   42,800;   54,000;    0,000
323,369;   73,200;   54,000;    0,000
323,388;   52,000;   56,800;    0,000
323,407;   44,600;   50,800;    0,000
323,425;   36,000;   39,600;    0,000
323,444;   69,000;   66,200;    0,000
323,462;   35,800;   10,600;    0,000
323,481;   39,800;   78,400;    0,000
323,499;   43,200;   51,200;    0,000
323,518;   63,800;   78,600;    0,000
323,536;   83,200;   42,800;    0,000
323,555;   92,000;   42,800;    0,000
323,573;   44,000;   55,600;    0,000
323,592;  102,000;   57,400;    0,000
323,610;   30,800;   45,600;    0,000
323,629;   92,400;   99,200;    0,000
323,647;   62,000;   50,800;    0,000
323,666;   78,600;   69,400;    0,000
323,684;   60,000;   56,200;    0,000
323,703;  105,000;   81,400;    0,000
323,721;   67,000;   69,600;    0,000
323,740;   94,800;  104,200;    0,000
323,758;   66,200;   87,000;    0,000
323,777;   78,000;   65,800;    0,000
323,795;   58,200;   59,200;    0,000
323,814;   98,000;  146,400;    0,000
323,832;   98,200;   80,600;    0,000
323,851;  126,400;  136,600;    0,000
323,869;   59,400;  110,400;    0,000
323,888;  127,600;  158,400;    0,000
323,906;   87,600;   63,600;    0,000
323,925;  117,000;  103,600;    0,000
323,943;   82,400;   90,600;    0,000
323,962;  124,200;  134,000;    0,000
323,980;   95,600;   71,600;    0,000
323,999;   93,400;   98,600;    0,000
324,017;  115,000;  141,400;    0,000
324,036;  142,600;  134,400;    0,000
324,054;  142,600;  118,400;    0,000
324,073;  154,400;  152,200;    0,000
324,091;  143,400;  125,600;    0,000
324,109;  128,800;  149,400;    0,000
324,128;  138,600;  152,400;    0,000
324,146;  178,600;  180,800;    0,000
324,165;  110,600;  134,200;    0,000
324,183;  152,800;  171,000;    0,000
324,202;  139,600;  179,600;    0,000
324,220;  170,800;  173,400;    0,000
324,239;  167,200;  194,600;    0,000
324,257;  250,800;  215,000;    0,000
324,275;  273,200;  295,400;    0,000
324,294;  292,400;  293,800;    0,000
324,312;  229,800;  233,600;    0,000
324,331;  184,600;  228,400;    0,000
324,349;  202,600;  200,800;    0,000
324,368;  214,000;  200,000;    0,000
324,386;  168,800;  218,200;    0,000
324,404;  287,200;  309,200;    0,000
324,423;  266,200;  236,400;    0,000
324,441;  260,400;  244,000;    0,000
324,460;  188,600;  251,200;    0,000
324,478;  243,200;  242,000;    0,000
324,496;  254,600;  279,000;    0,000
324,515;  249,200;  211,400;    0,000
324,533;  218,000;  265,200;    0,000
324,552;  336,200;  369,600;    0,000
324,570;  334,000;  295,000;    0,000
324,588;  379,200;  409,000;    0,000
324,607;  416,800;  443,800;    0,000
324,625;  438,000;  462,400;    0,000
324,644;  458,600;  477,000;    0,000
324,662;  424,200;  443,000;    0,000
324,680;  409,800;  420,600;    0,000
324,699;  454,200;  455,600;    0,000
324,717;  488,400;  526,400;    0,000
324,735;  596,800;  581,000;    0,000
324,754;  647,600;  679,600;    0,000
324,772;  807,600;  757,600;    0,000
324,791;  517,200;  548,000;    0,000
324,809;  496,800;  465,600;    0,000
324,827;  528,400;  554,600;    0,000
324,846;  542,600;  563,800;    0,000
324,864;  596,800;  622,200;    0,000
324,882;  644,400;  607,600;    0,000
324,901;  594,800;  609,600;    0,000
324,919;  788,000;  772,600;    0,000
324,937;  841,800;  885,000;    0,000
324,956;  961,400; 1008,200;    0,000
324,974;  789,800;  863,000;    0,000
324,992;  833,400;  885,800;    0,000
325,011;  976,000; 1003,200;    0,000
325,029;  925,800;  883,000;    0,000
325,047;  824,400;  843,000;    0,000
325,066;  807,200;  903,200;    0,000
325,084;  730,000;  712,800;    0,000
325,102;  576,200;  578,200;    0,000
325,121;  520,000;  574,800;    0,000
325,139;  598,000;  627,200;    0,000
325,157;  812,000;  759,400;    0,000
325,176; 1265,800; 1259,200;    0,000
325,194; 2289,400; 2372,000;    0,000
325,212; 4128,600; 4055,200;    0,000
325,231; 5635,800; 5632,000;    0,000
325,249; 4966,800; 4999,800;    0,000
325,267; 2826,200; 2790,800;    0,000
325,285; 1692,600; 1697,000;    0,000
325,304; 1056,800; 1071,200;    0,000
325,322;  797,800;  764,800;    0,000
325,340;  712,400;  722,000;    0,000
325,359;  812,000;  824,200;    0,000
325,377;  654,000;  685,800;    0,000
325,395;  592,600;  579,600;    0,000
325,413;  522,800;  505,200;    0,000
325,432;  465,800;  478,000;    0,000
325,450;  429,600;  410,200;    0,000
325,468;  439,000;  423,600;    0,000
325,487;  484,800;  489,600;    0,000
325,505;  460,800;  477,600;    0,000
325,523;  391,400;  420,200;    0,000
325,541;  403,400;  364,400;    0,000
325,560;  366,400;  354,200;    0,000
325,578;  404,800;  394,800;    0,000
325,596;  421,600;  465,400;    0,000
325,614;  415,600;  437,800;    0,000
325,633;  374,200;  397,800;    0,000
325,651;  421,600;  388,200;    0,000
325,669;  389,800;  417,000;    0,000
325,687;  477,400;  467,000;    0,000
325,706;  470,600;  477,200;    0,000
325,724;  443,800;  480,000;    0,000
325,742;  515,200;  512,400;    0,000
325,760;  598,200;  579,800;    0,000
325,779;  561,600;  581,200;    0,000
325,797;  642,400;  655,200;    0,000
325,815;  697,000;  742,000;    0,000
325,833;  747,600;  771,000;    0,000
325,852;  867,600;  874,000;    0,000
325,870; 1016,800;  989,200;    0,000
325,888; 1256,400; 1255,000;    0,000
325,906; 1577,800; 1609,000;    0,000
325,924; 1851,800; 1898,800;    0,000
325,943; 2761,600; 2792,000;    0,000
325,961; 4755,000; 4870,400;    0,000
325,979; 8092,800; 8238,600;    0,000
325,997;15824,000;15904,800;    0,000
326,015;40188,602;40561,602;    0,000
326,034;64565,602;64576,602;    0,000
326,052;64587,602;64586,398;    0,000
326,070;64565,602;64576,602;    0,000
326,088;64587,602;64586,398;    0,000
326,106;64565,602;64576,602;    0,000
326,125;64587,602;64586,398;    0,000
326,143;64565,602;64576,602;    0,000
326,161;64587,602;64586,398;    0,000
326,179;64565,602;64576,602;    0,000
326,197;64587,602;64586,398;    0,000
326,216;64565,602;64576,602;    0,000
326,234;64587,602;64586,398;    0,000
326,252;64565,602;64576,602;    0,000
326,270;64587,602;64586,398;    0,000
326,288;64565,602;64576,602;    0,000
326,306;64587,602;64586,398;    0,000
326,325;64565,602;64576,602;    0,000
326,343;64587,602;64586,398;    0,000
326,361;64565,602;64576,602;    0,000
326,379;64587,602;64586,398;    0,000
326,397;64565,602;64576,602;    0,000
326,415;64587,602;64586,398;    0,000
326,433;64565,602;64576,602;    0,000
326,452;64587,602;64586,398;    0,000
326,470;64565,602;64576,602;    0,000
326,488; 1527,200; 2188,800;    0,000
326,506; 1688,000; 4560,600;    0,000
326,524; 1319,600; 1291,600;    0,000
326,542; 1221,600; 1250,200;    0,000
326,560; 1168,400; 1147,800;    0,000
326,579; 1104,400; 1138,600;    0,000
326,597; 1051,600; 1130,000;    0,000
326,615; 1146,600; 1128,000;    0,000
326,633; 1062,000; 1086,000;    0,000
326,651;  980,600; 1024,000;    0,000
326,669;  980,000;  944,000;    0,000
326,687;  939,000;  963,800;    0,000
326,705;  804,400;  788,400;    0,000
326,723;  719,000;  726,000;    0,000
326,742;  702,200;  729,600;    0,000
326,760;  760,400;  786,000;    0,000
326,778;  882,200;  856,000;    0,000
326,796;  835,800;  836,200;    0,000
326,814;  845,000;  884,000;    0,000
326,832; 1033,200; 1044,000;    0,000
326,850;  867,200;  961,400;    0,000
326,868;  841,200;  835,800;    0,000
326,886;  782,800;  832,000;    0,000
326,904;  714,200;  785,200;    0,000
326,922;  806,200;  830,800;    0,000
326,941;  847,000;  864,800;    0,000
326,959;  985,800; 1038,800;    0,000
326,977;  912,200;  941,200;    0,000
326,995;  895,000;  887,000;    0,000
327,013;  877,200;  907,600;    0,000
327,031;  991,800;  997,000;    0,000
327,049; 1004,000;  987,000;    0,000
327,067;  809,200;  843,200;    0,000
327,085;  722,400;  713,600;    0,000
327,103;  693,600;  703,600;    0,000
327,121;  659,600;  670,600;    0,000
327,139;  712,600;  747,800;    0,000
327,157;  761,000;  769,400;    0,000
327,175;  927,000;  912,400;    0,000
327,193;  785,400;  813,600;    0,000
327,211;  723,200;  717,200;    0,000
327,229;  803,600;  748,600;    0,000
327,247;  805,200;  837,200;    0,000
327,266; 1028,800; 1006,000;    0,000
327,284; 1097,000; 1110,400;    0,000
327,302; 1141,600; 1161,200;    0,000
327,320; 1092,800; 1091,000;    0,000
327,338;  808,400;  850,600;    0,000
327,356;  591,400;  582,800;    0,000
327,374;  358,200;  415,000;    0,000
327,392;  366,200;  426,200;    0,000
327,410;  548,400;  545,400;    0,000
327,428;  541,000;  547,800;    0,000
327,446;  366,000;  383,800;    0,000
327,464;  363,800;  366,000;    0,000
327,482;  380,000;  393,200;    0,000
327,500;  488,200;  443,000;    0,000
327,518;  503,800;  518,000;    0,000
327,536;  532,000;  523,400;    0,000
327,554;  494,800;  476,400;    0,000
327,572;  400,000;  377,800;    0,000
327,590;  289,000;  313,600;    0,000
327,608;  355,200;  319,400;    0,000
327,626;  302,000;  303,600;    0,000
327,644;  305,600;  291,200;    0,000
327,662;  241,000;  276,200;    0,000
327,680;  293,200;  293,800;    0,000
327,698;  233,000;  286,600;    0,000
327,716;  194,200;  227,800;    0,000
327,734;  124,400;  168,800;    0,000
327,752;  178,800;  202,800;    0,000
327,770;  169,200;  191,800;    0,000
327,787;  202,800;  179,200;    0,000
327,805;  160,800;  158,400;    0,000
327,823;  148,200;  236,400;    0,000
327,841;  129,200;  174,200;    0,000
327,859;  195,200;  172,600;    0,000
327,877;  174,000;  162,800;    0,000
327,895;  194,400;  202,800;    0,000
327,913;  173,000;  189,400;    0,000
327,931;  188,200;  195,000;    0,000
327,949;  155,600;  176,800;    0,000
327,967;  196,400;  201,400;    0,000
327,985;  149,600;  163,600;    0,000
328,003;  175,000;  190,200;    0,000
328,021;  180,200;  170,400;    0,000
328,039;  178,000;  159,200;    0,000
328,057;  138,000;  107,400;    0,000
328,075;  134,200;  135,800;    0,000
328,092;  122,800;   90,400;    0,000
328,110;  107,000;   67,600;    0,000
328,128;   89,800;   58,400;    0,000
328,146;   82,800;  106,200;    0,000
328,164;   64,400;   77,000;    0,000
328,182;   56,600;   82,400;    0,000
328,200;   60,200;   98,600;    0,000
328,218;   98,800;   73,400;    0,000
328,236;   61,800;   66,800;    0,000
328,254;   85,000;   73,800;    0,000
328,272;   68,400;  103,400;    0,000
328,289;   55,000;   76,600;    0,000
328,307;   65,200;   89,800;    0,000
328,325;   70,000;   78,200;    0,000
328,343;   55,800;   53,000;    0,000
328,361;   81,600;   89,200;    0,000
328,379;   49,200;   32,800;    0,000
328,397;  126,000;   56,600;    0,000
328,415;   63,600;   82,800;    0,000
328,432;   82,600;   72,000;    0,000
328,450;   80,800;   69,400;    0,000
328,468;   97,000;   87,800;    0,000
328,486;   62,200;   12,200;    0,000
328,504;   60,800;   77,000;    0,000
328,522;   34,600;   88,800;    0,000
328,540;   75,000;   74,200;    0,000
328,558;    5,200;   42,400;    0,000
328,575;   56,600;   69,200;    0,000
328,593;   32,000;   51,000;    0,000
328,611;   52,200;   73,600;    0,000
328,629;   11,000;   51,000;    0,000
328,647;   13,800;   41,200;    0,000
328,665;   39,800;   67,800;    0,000
328,682;   71,400;   62,200;    0,000
328,700;   44,000;   42,600;    0,000
328,718;   41,800;   41,600;    0,000
328,736;   -7,800;   49,000;    0,000
328,754;   25,800;   11,400;    0,000
328,772;    3,000;   24,400;    0,000
328,789;   29,200;   56,000;    0,000
328,807;   15,400;   37,000;    0,000
328,825;   51,600;   43,200;    0,000
328,843;   46,200;   67,400;    0,000
328,861;   52,400;   24,200;    0,000
328,879;   28,200;   13,600;    0,000
328,896;   31,000;   29,200;    0,000
328,914;   21,400;    3,200;    0,000
328,932;   56,200;   59,200;    0,000
328,950;   13,000;   56,000;    0,000
328,968;   30,200;   18,400;    0,000
328,985;   33,600;   59,800;    0,000
329,003;   67,600;   83,200;    0,000
329,021;   37,400;   49,600;    0,000
329,039;   48,400;   31,400;    0,000
329,057;   31,400;   24,800;    0,000
329,074;   25,000;   43,600;    0,000
329,092;   -8,000;   37,600;    0,000
329,110;   36,600;    1,800;    0,000
329,128;    1,000;   42,200;    0,000
329,146;    5,200;   20,800;    0,000
329,163;   12,600;   11,400;    0,000
329,181;   65,600;   57,000;    0,000
329,199;   25,400;   18,200;    0,000
329,217;   32,000;   -3,200;    0,000
329,234;   37,200;   28,400;    0,000
329,252;   59,600;   22,000;    0,000
329,270;    2,800;   28,600;    0,000
329,288;   36,200;   22,200;    0,000
329,305;   37,200;   65,200;    0,000
329,323;   53,400;   40,800;    0,000
329,341;   26,200;   49,800;    0,000
329,359;   43,400;   18,400;    0,000
329,376;    7,200;    5,200;    0,000
329,394;   85,200;   11,200;    0,000
329,412;   19,000;  -14,200;    0,000
329,430;   47,000;    7,200;    0,000
329,447;   14,400;   18,600;    0,000
329,465;   49,000;   30,800;    0,000
329,483;   21,400;   -1,600;    0,000
329,501;   11,800;   64,200;    0,000
329,518;   29,000;   44,800;    0,000
329,536;   30,200;   12,000;    0,000
329,554;   15,000;   48,200;    0,000
329,571;   50,000;   44,800;    0,000
329,589;  -16,000;   -7,600;    0,000
329,607;   22,400;    6,600;    0,000
329,625;    5,800;   30,800;    0,000
329,642;   26,800;   11,400;    0,000
329,660;   21,000;   -1,200;    0,000
329,678;   14,400;   25,800;    0,000
329,695;   43,000;    0,200;    0,000
329,713;   11,600;   30,600;    0,000
329,731;   16,200;   -1,400;    0,000
329,748;   15,600;    6,800;    0,000
329,766;   -6,400;   26,200;    0,000
329,784;   40,400;   64,200;    0,000
329,802;   51,400;   18,000;    0,000
329,819;    4,000;    2,000;    0,000
329,837;    3,000;    7,200;    0,000
329,855;   -0,600;   51,800;    0,000
329,872;   -7,000;    4,200;    0,000
329,890;   15,600;   56,400;    0,000
329,908;   35,000;   17,000;    0,000
329,925;   25,000;   26,400;    0,000
329,943;   -3,000;   40,200;    0,000
329,961;   61,600;    6,400;    0,000
329,978;  -41,600;   14,600;    0,000
329,996;   56,000;   24,400;    0,000
330,014;    4,400;  -29,400;    0,000
330,031;   56,200;    5,000;    0,000
330,049;  -23,600;    8,400;    0,000
330,066;   49,200;    5,400;    0,000
330,084;  -21,200;   16,200;    0,000
330,102;   34,800;    1,400;    0,000
330,119;    7,200;   25,400;    0,000
330,137;   14,400;   22,200;    0,000
330,155;    3,000;   32,600;    0,000
330,172;   34,400;   19,600;    0,000
330,190;   16,000;    0,200;    0,000
330,208;   45,000;  -27,400;    0,000
330,225;  -35,600;  -32,000;    0,000
330,243;   29,400;    5,400;    0,000
330,260;   26,800;   -0,400;    0,000
330,278;    6,400;   59,200;    0,000
330,296;  -28,600;    5,400;    0,000
330,313;   47,800;   23,800;    0,000
330,331;   20,000;   31,200;    0,000
330,349;   36,400;   23,000;    0,000
330,366;   39,200;   48,400;    0,000
330,384;   39,200;   15,400;    0,000
330,401;   21,000;   31,200;    0,000
330,419;   17,200;   22,800;    0,000
330,437;   27,000;    5,000;    0,000
330,454;   57,400;   32,800;    0,000
330,472;   -8,800;   17,400;    0,000
330,489;   57,400;    4,200;    0,000
330,507;   27,000;   42,600;    0,000
330,525;   33,000;   51,200;    0,000
330,542;   19,200;   12,600;    0,000
330,560;   53,400;   39,000;    0,000
330,577;   -1,800;    3,400;    0,000
330,595;   32,200;    4,400;    0,000
330,612;    9,000;    5,000;    0,000
330,630;   13,200;   15,600;    0,000
330,648;   -1,200;   28,400;    0,000
330,665;   35,800;   24,000;    0,000
330,683;  -21,000;  -22,600;    0,000
330,700;  -15,200;    3,800;    0,000
330,718;    5,000;   -3,800;    0,000
330,735;   34,400;   13,200;    0,000
330,753;  -24,400;   -7,200;    0,000
330,770;   -8,600;   -9,800;    0,000
330,788;   -3,200;  -10,000;    0,000
330,806;   13,000;    6,400;    0,000
330,823;   17,200;   10,600;    0,000
330,841;   17,800;    8,400;    0,000
330,858;   23,000;    0,800;    0,000
330,876;   27,800;   32,400;    0,000
330,893;   -3,000;    3,600;    0,000
330,911;   30,800;    6,600;    0,000
330,928;   13,200;   22,600;    0,000
330,946;   22,200;   -8,000;    0,000
330,963;    1,400;   22,800;    0,000
330,981;   44,800;   -2,600;    0,000
330,998;   30,200;  -16,200;    0,000
331,016;   30,000;   24,200;    0,000
331,033;   16,800;  -10,200;    0,000
331,051;   28,200;   15,800;    0,000
331,068;   -7,200;   -8,000;    0,000
331,086;   31,800;   52,600;    0,000
331,103;  -13,000;  -39,200;    0,000
331,121;   37,600;   26,600;    0,000
331,138;    4,600;   24,800;    0,000
331,156;   -0,200;   20,800;    0,000
331,173;   13,800;    1,400;    0,000
331,191;  -14,400;   34,000;    0,000
331,208;   22,000;  -25,400;    0,000
331,226;   45,200;   41,200;    0,000
331,243;   27,400;  -19,000;    0,000
331,261;  -13,200;    8,200;    0,000
331,278;    5,000;   -7,800;    0,000
331,296;    9,200;   21,000;    0,000
331,313;    7,200;    6,800;    0,000
331,331;    7,800;   55,600;    0,000
331,348;    8,000;    3,600;    0,000
331,366;   35,400;   24,000;    0,000
331,383;    7,800;   -2,400;    0,000
331,401;   63,600;   31,000;    0,000
331,418;    7,800;    0,600;    0,000
331,435;   40,200;   28,800;    0,000
331,453;   31,400;   -4,800;    0,000
331,470;   66,800;   72,000;    0,000
331,488;   66,600;   57,600;    0,000
331,505;  180,200;  181,800;    0,000
331,523;  217,800;  232,800;    0,000
331,540;  128,600;  148,000;    0,000
331,558;   91,200;  118,600;    0,000
331,575;   60,000;   36,400;    0,000
331,592;  -38,400;   -5,600;    0,000
331,610;   -9,600;   26,600;    0,000
331,627;  -14,000;    8,800;    0,000
331,645;   37,400;   24,400;    0,000
331,662;  -50,800;   -1,200;    0,000
331,680;   -2,000;    0,400;    0,000
331,697;   -9,800;   12,400;    0,000
331,714;   65,000;   19,000;    0,000
331,732;  -17,400;    4,000;    0,000
331,749;   35,200;   32,800;    0,000
331,767;   -3,000;   -0,600;    0,000
331,784;   35,000;   34,600;    0,000
331,801;   15,000;   18,800;    0,000
331,819;   15,800;   21,200;    0,000
331,836;  -21,600;  -35,200;    0,000
331,854;   56,800;   60,200;    0,000
331,871;   -3,800;   39,800;    0,000
331,888;   29,000;   17,800;    0,000
331,906;  -22,800;    4,600;    0,000
331,923;    6,600;    8,400;    0,000
331,941;   12,000;   19,000;    0,000
331,958;   11,200;   10,800;    0,000
331,975;    1,600;   21,800;    0,000
331,993;   42,600;   10,800;    0,000
332,010;   19,800;  -13,400;    0,000
332,027;   -3,200;   11,200;    0,000
332,045;   21,000;  -12,800;    0,000
332,062;  -34,600;   24,800;    0,000
332,080;   26,200;    6,200;    0,000
332,097;   12,400;  -39,800;    0,000
332,114;   -0,800;    4,200;    0,000
332,132;   44,000;   15,200;    0,000
332,149;   -9,400;   -7,800;    0,000
332,166;    2,200;  -10,600;    0,000
332,184;  -33,600;  -21,000;    0,000
332,201;    5,800;   49,000;    0,000
332,218;    1,200;   -9,200;    0,000
332,236;   27,600;   27,400;    0,000
332,253;  -13,400;   -6,800;    0,000
332,270;   12,800;   39,800;    0,000
332,288;  -12,600;    9,800;    0,000
332,305;   12,200;   31,800;    0,000
332,322;    8,400;  -25,800;    0,000
332,340;   31,800;   24,600;    0,000
332,357;    1,200;    8,800;    0,000
332,374;   21,600;   55,000;    0,000
332,392;    4,800;   -7,600;    0,000
332,409;   33,800;  -12,600;    0,000
332,426;    7,400;   10,600;    0,000
332,444;   -5,000;  -10,200;    0,000
332,461;  -29,600;   32,400;    0,000
332,478;   18,000;  -20,200;    0,000
332,496;   -9,600;   20,000;    0,000
332,513;   38,000;   36,200;    0,000
332,530;  -36,800;  -35,000;    0,000
332,547;   86,800;   20,000;    0,000
332,565;    7,800;  -29,600;    0,000
332,582;   16,600;   36,400;    0,000
332,599;   -2,000;   -5,200;    0,000
332,617;   55,000;   -0,800;    0,000
332,634;   -9,000;   -4,400;    0,000
332,651;   17,000;    3,000;    0,000
332,668;  -24,000;    7,400;    0,000
332,686;    5,400;   -9,400;    0,000
332,703;   31,400;   18,200;    0,000
332,720;  -46,600;   -8,800;    0,000
332,738;   32,400;  -31,200;    0,000
332,755;   67,000;   36,400;    0,000
332,772;    4,000;   18,400;    0,000
332,789;  -20,000;   -9,800;    0,000
332,807;   16,400;   26,600;    0,000
332,824;    8,000;  -11,800;    0,000
332,841;   23,200;   31,600;    0,000
332,858;   59,200;  -13,600;    0,000
332,876;    4,000;   -6,000;    0,000
332,893;    7,400;   -7,800;    0,000
332,910;   19,000;   17,000;    0,000
332,927;   13,400;   32,800;    0,000
332,945;   31,200;   31,200;    0,000
332,962;    8,000;   14,200;    0,000
332,979;  -23,000;   -1,000;    0,000
332,996;   33,000;   19,200;    0,000
333,013;   17,400;   22,200;    0,000
333,031;    5,600;   -9,000;    0,000
333,048;   38,400;   51,600;    0,000
333,065;   32,600;   14,200;    0,000
333,082;  -12,200;   -8,600;    0,000
333,100;   22,000;   11,000;    0,000
333,117;   18,400;    5,200;    0,000
333,134;    9,800;   16,600;    0,000
333,151;   10,400;  -17,800;    0,000
333,168;   53,800;   33,000;    0,000
333,186;   45,600;    7,200;    0,000
333,203;   13,800;    8,600;    0,000
333,220;   20,200;   20,800;    0,000
333,237;    7,400;   17,800;    0,000
333,254;  -13,400;    8,400;    0,000
333,272;   54,800;   32,600;    0,000
333,289;    7,600;    4,400;    0,000
333,306;  -24,800;  -18,000;    0,000
333,323;  -29,200;  -34,800;    0,000
333,340;   50,800;   17,200;    0,000
333,358;    0,600;   -1,200;    0,000
333,375;  -12,400;   -4,800;    0,000
333,392;   50,800;  -18,600;    0,000
333,409;   22,400;   18,800;    0,000
333,426;   13,600;   -4,600;    0,000
333,443;   20,200;   38,400;    0,000
333,461;   42,000;   44,600;    0,000
333,478;    0,600;  -26,200;    0,000
333,495;  -19,600;   16,400;    0,000
333,512;   40,600;   73,600;    0,000
333,529;    3,400;   22,200;    0,000
333,546;   15,200;   -9,000;    0,000
333,564;  -15,200;  -14,000;    0,000
333,581;  -14,800;  -14,400;    0,000
333,598;  -19,800;  -20,400;    0,000
333,615;   11,200;   -3,400;    0,000
333,632;    3,400;    4,000;    0,000
333,649;   14,800;   32,200;    0,000
333,666;   23,200;   31,200;    0,000
333,683;   24,800;   18,400;    0,000
333,701;   25,000;   -3,600;    0,000
333,718;   32,200;    0,400;    0,000
333,735;   17,600;    2,600;    0,000
333,752;   -2,200;   27,200;    0,000
333,769;   -2,200;   15,600;    0,000
333,786;    7,200;    8,000;    0,000
333,803;  -31,000;   -8,400;    0,000
333,820;   12,000;   10,600;    0,000
333,838;  -52,200;  -10,000;    0,000
333,855;  -30,400;    3,600;    0,000
333,872;   -6,400;   40,200;    0,000
333,889;   45,600;   43,000;    0,000
333,906;    3,400;   11,000;    0,000
333,923;    8,200;   32,200;    0,000
333,940;    1,200;   10,200;    0,000
333,957;    6,400;   31,800;    0,000
333,974;   38,000;  -41,600;    0,000
333,991;   15,400;    1,800;    0,000
334,008;   61,200;   13,400;    0,000
334,026;    2,000;    7,000;    0,000
334,043;    4,600;  -18,400;    0,000
334,060;   19,200;   16,400;    0,000
334,077;  -24,000;   32,000;    0,000
334,094;   18,000;   16,400;    0,000
334,111;  -14,600;    6,000;    0,000
334,128;   21,000;    0,000;    0,000
334,145;   21,800;   43,800;    0,000
334,162;   18,600;   -3,800;    0,000
334,179;   32,200;  -12,600;    0,000
334,196;   14,000;    6,200;    0,000
334,213;   12,000;   -8,600;    0,000
334,230;   60,800;   13,600;    0,000
334,247;   21,000;    5,800;    0,000
334,264;   38,800;    0,600;    0,000
334,281;    7,600;   16,000;    0,000
334,298;   22,800;    7,600;    0,000
334,316;    9,400;   -4,200;    0,000
334,333;   13,600;   -8,000;    0,000
334,350;    2,400;   21,600;    0,000
334,367;    3,200;    0,800;    0,000
334,384;   30,600;   -0,600;    0,000
334,401;   20,200;   12,200;    0,000
334,418;    2,200;  -42,400;    0,000
334,435;   10,600;   51,800;    0,000
334,452;   18,200;   -2,000;    0,000
334,469;   34,800;   31,200;    0,000
334,486;  -40,800;   -7,800;    0,000
334,503;   20,400;   10,800;    0,000
334,520;   -3,200;    2,000;    0,000
334,537;    7,800;   50,600;    0,000
334,554;  -23,000;   -8,000;    0,000
334,571;   38,800;    9,200;    0,000
334,588;   -5,200;  -15,800;    0,000
334,605;   11,200;   11,800;    0,000
334,622;   16,800;    0,600;    0,000
334,639;   15,400;   21,600;    0,000
334,656;  -31,800;   -7,400;    0,000
334,673;   68,000;   28,600;    0,000
334,690;   -9,200;  -30,200;    0,000
334,707;   15,800;   21,200;    0,000
334,724;   -3,000;    9,800;    0,000
334,741;  -27,200;   -0,200;    0,000
334,758;   17,200;    2,800;    0,000
334,775;   22,400;  -12,600;    0,000
334,792;   -9,200;   -5,800;    0,000
334,809;   50,600;   20,000;    0,000
334,826;  -11,800;  -24,400;    0,000
334,842;   30,000;   30,000;    0,000
334,859;   24,000;   13,800;    0,000
334,876;   32,800;   51,600;    0,000
334,893;  -19,000;    2,200;    0,000
334,910;    8,000;  -24,800;    0,000
334,927;  -14,800;    6,200;    0,000
334,944;   19,800;   12,400;    0,000
334,961;   -6,800;   -0,600;    0,000
334,978;   69,600;   -2,200;    0,000
334,995;    5,800;  -22,000;    0,000
335,012;  -27,600;   37,000;    0,000
335,029;   45,600;  -23,000;    0,000
335,046;   -6,600;  -12,400;    0,000
335,063;    8,800;   34,400;    0,000
335,080;   27,000;   32,200;    0,000
335,097;   -1,600;   -3,800;    0,000
335,113;  -25,000;   11,200;    0,000
335,130;  -24,800;   -5,400;    0,000
335,147;   93,600;   38,400;    0,000
335,164;   -8,200;   -7,800;    0,000
335,181;  -21,600;  -14,800;    0,000
335,198;   24,000;  -35,600;    0,000
335,215;   16,200;   26,200;    0,000
335,232;   39,200;   26,800;    0,000
335,249;    4,800;  -19,200;    0,000
335,266;    9,200;   -7,200;    0,000
335,283;  -18,200;    5,000;    0,000
335,299;   10,200;    0,800;    0,000
335,316;   39,000;    5,400;    0,000
335,333;    7,000;  -43,600;    0,000
335,350;   51,800;   49,600;    0,000
335,367;    0,200;   38,600;    0,000
335,384;    3,800;  -11,600;    0,000
335,401;  -19,000;  -47,800;    0,000
335,418;   63,000;   20,000;    0,000
335,434;  -59,400;   18,800;    0,000
335,451;   14,800;   33,600;    0,000
335,468;   27,200;    7,600;    0,000
335,485;   20,800;   30,800;    0,000
335,502;    7,200;  -17,000;    0,000
335,519;   35,000;    2,600;    0,000
335,536;   28,200;    0,400;    0,000
335,552;   20,600;   38,200;    0,000
335,569;   15,400;   -6,200;    0,000
335,586;  -17,800;  -15,600;    0,000
335,603;    3,000;   -3,800;    0,000
335,620;    8,200;   22,400;    0,000
335,637;   -2,400;    8,000;    0,000
335,654;   55,600;  -17,400;    0,000
335,670;   30,800;   16,600;    0,000
335,687;    6,000;   31,800;    0,000
335,704;    4,600;    3,600;    0,000
335,721;   -3,000;    6,800;    0,000
335,738;   -6,200;   18,200;    0,000
335,755;   20,600;   12,800;    0,000
335,771;  -37,000;    3,200;    0,000
335,788;   24,200;  -27,800;    0,000
335,805;  -27,800;  -18,200;    0,000
335,822;   -5,600;   53,000;    0,000
335,839;  -48,000;    0,600;    0,000
335,855;   -4,400;  -17,200;    0,000
335,872;   -7,000;  -13,200;    0,000
335,889;   12,000;   19,000;    0,000
335,906;  -12,400;   39,400;    0,000
335,923;   17,600;   18,000;    0,000
335,939;  -21,400;  -12,200;    0,000
335,956;   28,600;   16,000;    0,000
335,973;  -21,000;  -14,600;    0,000
335,990;  117,400;   99,000;    0,000
336,007;  -18,800;   -3,800;    0,000
336,023;   53,600;   25,200;    0,000
336,040;   11,600;   -4,000;    0,000
336,057;   38,200;   17,800;    0,000
336,074;   18,800;  -15,200;    0,000
336,090;   31,600;   55,000;    0,000
336,107;  -33,200;  -13,000;    0,000
336,124;   -2,600;   38,800;    0,000
336,141;   -7,800;   -9,800;    0,000
336,158;   38,600;   -0,400;    0,000
336,174;   -7,000;   38,000;    0,000
336,191;   24,800;   17,800;    0,000
336,208;    5,600;   -2,200;    0,000
336,225;   47,200;   27,000;    0,000
336,241;   19,600;   27,200;    0,000
336,258;   61,400;   42,800;    0,000
336,275;   -3,400;  -29,200;    0,000
336,292;  -29,600;   -3,600;    0,000
336,308;  -44,000;   -7,000;    0,000
336,325;   16,800;    8,200;    0,000
336,342;  -12,400;    3,200;    0,000
336,358;   25,000;   29,600;    0,000
336,375;    0,800;   -2,800;    0,000
336,392;   15,200;   -5,000;    0,000
336,409;  -24,800;  -25,200;    0,000
336,425;   28,800;  -10,000;    0,000
336,442;   11,400;    3,800;    0,000
336,459;   19,400;    1,800;    0,000
336,476;   33,200;   31,400;    0,000
336,492;   47,600;  -20,800;    0,000
336,509;   15,200;   15,800;    0,000
336,526;   23,600;   31,400;    0,000
336,542;    3,400;    2,600;    0,000
336,559;   54,400;   21,600;    0,000
336,576;  -19,200;  -18,400;    0,000
336,592;   -6,800;   26,200;    0,000
336,609;   -9,000;   11,200;    0,000
336,626;   35,600;   11,800;    0,000
336,643;  -13,200;   -0,400;    0,000
336,659;   44,200;   10,000;    0,000
336,676;  -29,600;  -17,600;    0,000
336,693;   33,200;    9,000;    0,000
336,709;    3,800;   32,200;    0,000
336,726;    6,800;   17,000;    0,000
336,743;  -11,800;   16,000;    0,000
336,759;   23,400;  -10,600;    0,000
336,776;  -16,800;   -1,400;    0,000
336,793;   18,200;  -18,000;    0,000
336,809;  -20,000;   18,600;    0,000
336,826;  -14,800;   -5,800;    0,000
336,843;  -30,200;   39,600;    0,000
336,859;    8,800;   30,200;    0,000
336,876;  -14,000;   -9,800;    0,000
336,893;  -16,600;   16,800;    0,000
336,909;  -26,400;  -37,200;    0,000
336,926;   32,200;   24,600;    0,000
336,942;    8,200;    3,600;    0,000
336,959;   43,600;   54,000;    0,000
336,976;   -6,000;   11,000;    0,000
336,992;    6,600;   -5,800;    0,000
337,009;   25,000;    0,800;    0,000
337,026;   46,200;   51,600;    0,000
337,042;    3,400;  -18,000;    0,000
337,059;   16,200;   17,000;    0,000
337,076;   11,000;    3,200;    0,000
337,092;   27,400;   21,800;    0,000
337,109;   48,800;   -6,400;    0,000
337,125;   55,000;   15,200;    0,000
337,142;  -28,200;   -5,000;    0,000
337,159;   32,200;   57,600;    0,000
337,175;   30,000;   17,400;    0,000
337,192;   40,200;   41,600;    0,000
337,208;   21,000;   45,800;    0,000
337,225;   42,200;   24,400;    0,000
337,242;   -9,400;  -14,200;    0,000
337,258;   48,200;  -13,200;    0,000
337,275;  -16,200;   26,000;    0,000
337,291;  -14,000;    8,400;    0,000
337,308;   -2,600;    3,800;    0,000
337,325;   18,200;   31,200;    0,000
337,341;  -38,000;  -26,600;    0,000
337,358;   43,000;   25,000;    0,000
337,374;   -4,000;   36,200;    0,000
337,391;   42,000;   23,800;    0,000
337,407;   10,200;    3,200;    0,000
337,424;    8,200;    5,000;    0,000
337,441;   31,800;    0,200;    0,000
337,457;   26,600;  -26,600;    0,000
337,474;   10,800;   14,400;    0,000
337,490;    8,200;   16,800;    0,000
337,507;    0,200;  -53,400;    0,000
337,523;   24,400;    9,200;    0,000
337,540;  -10,800;  -14,000;    0,000
337,556;   21,800;   16,200;    0,000
337,573;  -31,800;    6,000;    0,000
337,590;    6,000;   -7,000;    0,000
337,606;    3,800;   16,800;    0,000
337,623;   34,600;   17,400;    0,000
337,639;    2,200;   -4,600;    0,000
337,656;   -7,600;  -14,600;    0,000
337,672;   11,000;   39,200;    0,000
337,689;   61,800;    6,000;    0,000
337,705;   -5,800;  -10,000;    0,000
337,722;   -1,000;   46,000;    0,000
337,738;   -3,200;   -6,800;    0,000
337,755;    3,000;  -12,000;    0,000
337,771;   -2,200;   -2,000;    0,000
337,788;   36,000;   13,200;    0,000
337,804;  -12,000;   11,000;    0,000
337,821;   21,800;   19,400;    0,000
337,837;  -12,000;    4,800;    0,000
337,854;   80,600;   37,400;    0,000
337,870;    6,200;  -39,400;    0,000
337,887;    9,800;   32,000;    0,000
337,903;  -16,000;  -22,200;    0,000
337,920;   14,200;   44,800;    0,000
337,936;  -14,000;  -17,400;    0,000
337,953;   10,200;   -1,800;    0,000
337,969;   24,200;   22,000;    0,000
337,986;   12,600;    4,600;    0,000
338,002;  -12,800;    7,800;    0,000
338,019;   47,200;   -7,800;    0,000
338,035;   -5,000;    8,800;    0,000
338,052;    3,800;   15,400;    0,000
338,068;   26,400;   50,800;    0,000
338,085;   47,800;   38,800;    0,000
338,101;    0,800;  -19,000;    0,000
338,118;    8,600;   26,000;    0,000
338,134;   32,600;   54,600;    0,000
338,151;   10,600;    7,600;    0,000
338,167;  -29,200;   37,600;    0,000
338,183;   20,600;   30,200;    0,000
338,200;   17,400;   22,600;    0,000
338,216;   39,200;   27,600;    0,000
338,233;   -9,800;   -7,400;    0,000
338,249;   28,400;   55,600;    0,000
338,266;   22,800;    3,800;    0,000
338,282;    3,000;   25,400;    0,000
338,298;    2,800;   16,400;    0,000
338,315;   34,800;   38,400;    0,000
338,331;  -28,600;  -12,200;    0,000
338,348;  -11,200;   16,400;    0,000
338,364;   -6,000;  -16,200;    0,000
338,381;   61,200;   -3,000;    0,000
338,397;   12,200;  -21,200;    0,000
338,413;   24,000;    9,600;    0,000
338,430;   -3,000;   16,800;    0,000
338,446;   15,800;   22,800;    0,000
338,463;   -3,200;   -1,400;    0,000
338,479;   27,600;   28,400;    0,000
338,495;  -23,800;    8,800;    0,000
338,512;   -0,400;   15,000;    0,000
338,528;  -10,800;   23,400;    0,000
338,545;   36,600;    3,200;    0,000
338,561;   25,800;  -12,800;    0,000
338,577;   25,800;   37,200;    0,000
338,594;    6,200;   23,000;    0,000
338,610;   31,600;   33,000;    0,000
338,627;    2,200;   -2,800;    0,000
338,643;   -3,800;   34,400;    0,000
338,659;   46,600;   50,600;    0,000
338,676;   13,400;   14,600;    0,000
338,692;   56,200;   31,000;    0,000
338,708;    5,400;   16,800;    0,000
338,725;  -73,000;    1,600;    0,000
338,741;   32,800;   52,000;    0,000
338,758;   -1,600;   -7,400;    0,000
338,774;   19,800;   -5,400;    0,000
338,790;   -8,800;  -44,800;    0,000
338,807;   51,400;   78,400;    0,000
338,823;    3,800;   -5,200;    0,000
338,839;   49,200;   27,200;    0,000
338,856;   29,800;   22,600;    0,000
338,872;   58,600;   19,600;    0,000
338,888;  -23,000;   -2,800;    0,000
338,905;   41,000;   -4,400;    0,000
338,921;   13,600;   -6,400;    0,000
338,937;   30,400;   40,200;    0,000
338,954;   10,200;   44,400;    0,000
338,970;   78,800;   55,800;    0,000
338,986;  -23,400;   36,200;    0,000
339,003;   64,200;   61,000;    0,000
339,019;    4,000;   34,200;    0,000
339,035;   21,000;   10,200;    0,000
339,052;   40,600;   25,200;    0,000
339,068;   21,400;    8,600;    0,000
339,084;   17,800;   22,800;    0,000
339,101;   54,000;   59,400;    0,000
339,117;   20,800;   30,400;    0,000
339,133;   57,000;   76,600;    0,000
339,149;   52,200;   42,200;    0,000
339,166;   61,600;   68,200;    0,000
339,182;   31,000;   33,200;    0,000
339,198;   88,600;   31,200;    0,000
339,215;   13,400;   66,800;    0,000
339,231;  120,200;   82,400;    0,000
339,247;   24,000;   40,600;    0,000
339,263;   54,200;   52,200;    0,000
339,280;  112,000;   67,800;    0,000
339,296;   78,400;   57,800;    0,000
339,312;    6,200;   31,800;    0,000
339,329;   17,800;   61,800;    0,000
339,345;   22,800;    9,800;    0,000
339,361;   52,600;   37,400;    0,000
339,377;   24,200;   17,800;    0,000
339,394;   44,600;   41,600;    0,000
339,410;   38,200;   18,000;    0,000
339,426;   49,600;   60,800;    0,000
339,442;   19,400;   56,800;    0,000
339,459;   53,600;   46,200;    0,000
339,475;   -3,200;   24,000;    0,000
339,491;   65,400;   51,000;    0,000
339,507;   60,000;   38,200;    0,000
339,524;   58,200;   23,000;    0,000
339,540;   27,400;  -10,800;    0,000
339,556;   30,200;   21,000;    0,000
339,572;    9,600;    3,600;    0,000
339,589;   17,800;   42,000;    0,000
339,605;   23,600;   66,400;    0,000
339,621;   51,400;   80,200;    0,000
339,637;   40,000;   43,600;    0,000
339,654;   35,000;   21,200;    0,000
339,670;   24,600;   57,400;    0,000
339,686;   22,000;   29,600;    0,000
339,702;   -1,800;   -2,600;    0,000
339,718;   64,200;   14,000;    0,000
339,735;  -17,800;   31,800;    0,000
339,751;   23,200;    6,600;    0,000
339,767;   19,000;   10,000;    0,000
339,783;   43,200;   14,600;    0,000
339,799;    9,000;   25,800;    0,000
339,816;   42,000;   15,400;    0,000
339,832;   33,000;   23,000;    0,000
339,848;   33,800;  -15,400;    0,000
339,864;   31,400;   47,400;    0,000
339,880;   45,600;   52,200;    0,000
339,896;   36,200;   25,600;    0,000
339,913;   32,800;   15,600;    0,000
339,929;   34,000;  -28,800;    0,000
339,945;   55,400;   80,400;    0,000
339,961;   39,200;   36,000;    0,000
339,977;   42,000;   26,200;    0,000
339,993;    6,800;   34,200;    0,000
340,010;   54,800;   68,400;    0,000
340,026;   35,800;   -3,000;    0,000
340,042;   27,400;   28,400;    0,000
340,058;   33,400;   10,000;    0,000
340,074;   47,400;   95,000;    0,000
340,090;   -4,800;   41,600;    0,000
340,107;   46,400;   44,000;    0,000
340,123;   73,800;   49,800;    0,000
340,139;   82,800;   78,800;    0,000
340,155;   50,000;   54,600;    0,000
340,171;  108,000;   77,400;    0,000
340,187;  125,600;  102,200;    0,000
340,203;  188,200;  163,600;    0,000
340,220;  177,600;  223,400;    0,000
340,236;  384,000;  372,800;    0,000
340,252;  573,000;  591,200;    0,000
340,268; 1102,800; 1140,200;    0,000
340,284; 2502,200; 2484,800;    0,000
340,300; 5786,200; 5785,200;    0,000
340,316;13471,000;13371,400;    0,000
340,332;27866,600;27801,801;    0,000
340,349;42971,199;42909,199;    0,000
340,365;43150,602;43431,199;    0,000
340,381;28003,199;28308,199;    0,000
340,397;14322,800;14559,800;    0,000
340,413; 8102,800; 8103,800;    0,000
340,429; 4229,800; 4269,600;    0,000
340,445; 2099,200; 2146,600;    0,000
340,461; 1394,000; 1430,000;    0,000
340,477;  871,800;  875,800;    0,000
340,493;  555,000;  540,400;    0,000
340,509;  371,400;  371,200;    0,000
340,526;  321,600;  354,800;    0,000
340,542;  289,800;  292,800;    0,000
340,558;  284,000;  251,000;    0,000
340,574;  233,400;  225,000;    0,000
340,590;  203,000;  176,200;    0,000
340,606;  159,400;  178,200;    0,000
340,622;  164,200;  173,600;    0,000
340,638;  138,400;  158,200;    0,000
340,654;  145,800;  174,400;    0,000
340,670;  141,600;  135,000;    0,000
340,686;  116,600;  112,200;    0,000
340,702;   86,800;   98,600;    0,000
340,718;  121,800;   96,200;    0,000
340,734;  121,600;   81,400;    0,000
340,750;  100,200;  119,400;    0,000
340,766;   63,600;   53,200;    0,000
340,782;  103,600;   87,400;    0,000
340,798;   90,600;   80,600;    0,000
340,815;   54,600;  122,600;    0,000
340,831;   71,800;  106,800;    0,000
340,847;   99,200;  100,600;    0,000
340,863;   81,600;   81,400;    0,000
340,879;   69,200;   82,600;    0,000
340,895;   67,800;   59,800;    0,000
340,911;   80,800;   87,400;    0,000
340,927;   71,200;   78,400;    0,000
340,943;   69,800;   51,000;    0,000
340,959;   54,000;   93,000;    0,000
340,975;   81,000;   85,000;    0,000
340,991;   46,800;   66,600;    0,000
341,007;  103,000;   26,600;    0,000
341,023;   61,200;   28,000;    0,000
341,039;   25,600;   22,800;    0,000
341,055;   30,800;   42,000;    0,000
341,071;   78,000;   50,000;    0,000
341,087;   56,800;   35,000;    0,000
341,103;   69,200;   68,000;    0,000
341,119;   54,000;   50,400;    0,000
341,135;   65,400;   32,000;    0,000
341,151;   68,600;   61,800;    0,000
341,167;   38,800;   53,000;    0,000
341,183;   61,200;   60,000;    0,000
341,199;   44,400;   65,600;    0,000
341,215;   47,200;   31,400;    0,000
341,230;   61,200;   68,200;    0,000
341,246;   48,400;   45,000;    0,000
341,262;   90,200;   74,400;    0,000
341,278;   48,200;   76,000;    0,000
341,294;   82,200;   54,400;    0,000
341,310;   55,800;   64,200;    0,000
341,326;   63,600;   44,600;    0,000
341,342;   38,800;   78,600;    0,000
341,358;   87,600;   63,200;    0,000
341,374;   30,400;   31,600;    0,000
341,390;   63,400;   64,200;    0,000
341,406;   36,400;   46,800;    0,000
341,422;   59,400;   12,800;    0,000
341,438;    7,000;   68,400;    0,000
341,454;   85,000;   97,200;    0,000
341,470;   79,800;   75,000;    0,000
341,486;   72,800;   54,200;    0,000
341,502;   -1,200;    9,200;    0,000
341,517;   49,000;   76,600;    0,000
341,533;   70,000;   77,400;    0,000
341,549;   80,000;   34,200;    0,000
341,565;   71,400;   56,200;    0,000
341,581;   55,400;   98,600;    0,000
341,597;   44,200;   62,800;    0,000
341,613;   51,600;   68,600;    0,000
341,629;   13,600;   54,800;    0,000
341,645;   49,600;   60,600;    0,000
341,661;   39,000;   80,400;    0,000
341,676;   30,800;   48,600;    0,000
341,692;  -24,400;    6,400;    0,000
341,708;   76,400;   14,200;    0,000
341,724;   25,400;   34,800;    0,000
341,740;   20,800;   22,800;    0,000
341,756;   19,800;    9,400;    0,000
341,772;   55,600;   77,600;    0,000
341,788;   37,400;   10,400;    0,000
341,804;   36,400;   27,200;    0,000
341,819;    9,400;   38,400;    0,000
341,835;   43,200;   29,800;    0,000
341,851;   24,400;   40,600;    0,000
341,867;   30,600;   35,200;    0,000
341,883;   27,800;   32,200;    0,000
341,899;   43,000;   58,200;    0,000
341,915;   -7,000;   11,000;    0,000
341,930;   45,200;   18,000;    0,000
341,946;   64,000;   40,400;    0,000
341,962;   35,200;   23,200;    0,000
341,978;   14,800;   28,800;    0,000
341,994;   35,200;   55,000;    0,000
342,010;   -2,000;   -0,800;    0,000
342,025;   41,400;   35,000;    0,000
342,041;   32,200;  -12,000;    0,000
342,057;    2,400;   13,800;    0,000
342,073;   14,000;   15,600;    0,000
342,089;   -3,800;   39,200;    0,000
342,105;   40,000;   26,200;    0,000
342,120;   18,000;   -2,400;    0,000
342,136;   16,400;   12,600;    0,000
342,152;   17,200;  -22,200;    0,000
342,168;   14,800;  -17,400;    0,000
342,184;   -2,400;   19,400;    0,000
342,200;   31,800;  -16,400;    0,000
342,215;   27,000;  -13,600;    0,000
342,231;   26,800;   46,600;    0,000
342,247;    8,400;    7,600;    0,000
342,263;   10,200;   -5,200;    0,000
342,279;   -4,400;   45,800;    0,000
342,294;  -11,600;   -6,400;    0,000
342,310;   41,200;   34,200;    0,000
342,326;    8,200;   19,000;    0,000
342,342;   13,000;   44,200;    0,000
342,357;    1,000;  -14,200;    0,000
342,373;   29,600;  -10,200;    0,000
342,389;  -39,200;  -19,600;    0,000
342,405;   -5,800;   22,200;    0,000
342,421;    4,000;   -4,800;    0,000
342,436;   37,000;   12,800;    0,000
342,452;   27,000;   37,800;    0,000
342,468;   16,600;   -2,800;    0,000
342,484;   25,200;  -12,400;    0,000
342,499;    2,600;    0,800;    0,000
342,515;   44,600;  -33,600;    0,000
342,531;   33,000;    4,400;    0,000
342,547;    9,600;  -35,200;    0,000
342,562;   42,400;   51,000;    0,000
342,578;  -18,200;  -35,000;    0,000
342,594;   27,200;    6,400;    0,000
342,610;   -5,000;  -31,800;    0,000
342,625;   27,000;   48,400;    0,000
342,641;    3,800;   19,000;    0,000
342,657;   41,600;   47,000;    0,000
342,673;   12,000;   20,600;    0,000
342,688;    3,600;   21,400;    0,000
342,704;   -0,400;    7,400;    0,000
342,720;    7,200;   51,600;    0,000
342,735;    9,200;  -12,000;    0,000
342,751;   14,600;   25,200;    0,000
342,767;   47,000;   14,400;    0,000
342,783;   55,200;   45,600;    0,000
342,798;  -17,000;    3,800;    0,000
342,814;   24,000;    6,800;    0,000
342,830;   -3,200;  -27,400;    0,000
342,845;   31,800;   31,800;    0,000
342,861;  -24,600;  -16,600;    0,000
342,877;   16,800;    2,000;    0,000
342,892;  -12,000;   35,000;    0,000
342,908;   21,200;   14,200;    0,000
342,924;   -0,200;    0,400;    0,000
342,940;    9,800;   34,400;    0,000
342,955;  -27,200;  -21,800;    0,000
342,971;   31,800;   15,000;    0,000
342,987;  -14,800;   31,600;    0,000
343,002;   -2,800;   31,200;    0,000
343,018;   -5,200;   -1,200;    0,000
343,034;   10,400;   22,000;    0,000
343,049;   19,000;   19,800;    0,000
343,065;   43,400;   14,200;    0,000
343,081;  -12,600;   21,600;    0,000
343,096;    3,600;  -15,800;    0,000
343,112;   15,600;   15,400;    0,000
343,128;   37,800;   19,200;    0,000
343,143;   29,400;    0,000;    0,000
343,159;   17,600;   22,000;    0,000
343,174;  -25,800;    4,400;    0,000
343,190;   15,800;   31,200;    0,000
343,206;  -22,800;    2,800;    0,000
343,221;    1,000;    9,800;    0,000
343,237;  -17,200;    6,200;    0,000
343,253;   31,200;  -24,000;    0,000
343,268;   -5,600;   23,000;    0,000
343,284;   32,000;   35,000;    0,000
343,300;  -23,000;   -7,000;    0,000
343,315;   24,200;   -8,600;    0,000
343,331;  -22,800;    7,000;    0,000
343,346;   79,000;   23,400;    0,000
343,362;    7,600;   11,200;    0,000
343,378;   32,200;   12,400;    0,000
343,393;  -19,200;  -33,600;    0,000
343,409;   16,000;   23,000;    0,000
343,424;   14,400;  -11,800;    0,000
343,440;  -11,600;   -4,000;    0,000
343,456;   12,400;  -18,600;    0,000
343,471;   38,200;   -2,000;    0,000
343,487;  -16,000;   31,600;    0,000
343,502;    6,200;   15,000;    0,000
343,518;    9,800;   15,800;    0,000
343,534;   15,000;   28,000;    0,000
343,549;   25,000;  -17,800;    0,000
343,565;   30,200;   35,800;    0,000
343,580;  -39,200;   -7,200;    0,000
343,596;   28,600;   40,400;    0,000
343,611;   -6,800;  -23,800;    0,000
343,627;    7,000;    8,400;    0,000
343,643;  -12,000;  -13,200;    0,000
343,658;   45,600;    1,600;    0,000
343,674;   39,400;   51,800;    0,000
343,689;   21,400;   -1,600;    0,000
343,705;  -24,000;    9,600;    0,000
343,720;    1,200;   -0,600;    0,000
343,736;   16,400;   23,200;    0,000
343,751;   24,600;   -3,400;    0,000
343,767;  -20,400;  -36,800;    0,000
343,783;   11,400;    4,800;    0,000
343,798;   21,000;   26,600;    0,000
343,814;   -0,800;   49,800;    0,000
343,829;    1,000;    4,200;    0,000
343,845;   33,600;   46,000;    0,000
343,860;   15,800;  -22,400;    0,000
343,876;   40,800;   -6,800;    0,000
343,891;   18,600;   -3,800;    0,000
343,907;   29,800;   -8,400;    0,000
343,922;   23,600;   21,400;    0,000
343,938;   42,200;   21,800;    0,000
343,953;   -7,600;    2,600;    0,000
343,969;    9,600;   44,000;    0,000
343,984;  -37,200;  -10,200;    0,000
344,000;    7,800;   20,200;    0,000
344,015;   12,600;   34,000;    0,000
344,031;   14,000;   -4,000;    0,000
344,046;  -46,600;  -10,600;    0,000
344,062;   19,600;   12,400;    0,000
344,077;   -2,000;   29,400;    0,000
344,093;   30,000;    4,600;    0,000
344,108;   -0,600;   21,200;    0,000
344,124;   14,000;   -8,000;    0,000
344,139;  -27,800;   38,200;    0,000
344,155;   37,400;    9,800;    0,000
344,170;   29,800;  -24,000;    0,000
344,186;   18,800;  -21,800;    0,000
344,201;    2,400;   21,600;    0,000
344,217;   31,600;   -4,600;    0,000
344,232;   18,400;  -28,000;    0,000
344,248;    0,200;  -13,200;    0,000
344,263;   -4,600;   40,400;    0,000
344,279;   17,400;   -6,400;    0,000
344,294;  -12,400;  -44,800;    0,000
344,309;    9,800;   -5,000;    0,000
344,325;    1,200;  -12,200;    0,000
344,340;   52,000;   33,600;    0,000
344,356;  -28,800;   28,200;    0,000
344,371;   53,400;   21,400;    0,000
344,387;    9,400;   15,000;    0,000
344,402;   19,600;   15,600;    0,000
344,418;   11,800;   43,600;    0,000
344,433;   33,600;   28,800;    0,000
344,448;  -16,400;   16,600;    0,000
344,464;   43,800;   55,800;    0,000
344,479;    7,200;   44,200;    0,000
344,495;    7,400;   14,200;    0,000
344,510;   -6,000;    7,000;    0,000
344,526;  -11,200;   18,400;    0,000
344,541;   34,400;    0,000;    0,000
344,556;   28,000;   41,800;    0,000
344,572;   19,800;   16,800;    0,000
344,587;   63,200;   54,000;    0,000
344,603;   47,200;   34,000;    0,000
344,618;   -3,200;   19,600;    0,000
344,633;   12,000;   48,600;    0,000
344,649;   55,400;    4,600;    0,000
344,664;    8,800;   39,200;    0,000
344,680;   48,600;   23,200;    0,000
344,695;   76,400;   27,400;    0,000
344,710;   34,800;   24,400;    0,000
344,726;  -12,800;   19,200;    0,000
344,741;   11,800;   23,000;    0,000
344,756;   16,600;   12,000;    0,000
344,772;   28,400;   41,400;    0,000
344,787;   32,200;   51,600;    0,000
344,803;   17,400;   22,600;    0,000
344,818;   49,400;   16,800;    0,000
344,833;   38,000;   40,400;    0,000
344,849;   33,600;  -11,000;    0,000
344,864;   10,600;   -5,800;    0,000
344,879;   19,600;    3,600;    0,000
344,895;    4,200;   24,800;    0,000
344,910;   10,800;   36,600;    0,000
344,925;   18,200;    8,400;    0,000
344,941;    1,400;  -44,800;    0,000
344,956;   24,400;   19,600;    0,000
344,971;   46,200;   26,000;    0,000
344,987;   54,000;   40,600;    0,000
345,002;   41,000;   58,600;    0,000
345,017;   22,800;   23,800;    0,000
345,033;   11,200;   44,600;    0,000
345,048;   71,000;   67,600;    0,000
345,063;   34,800;   49,800;    0,000
345,079;   74,400;   77,600;    0,000
345,094;   39,200;   17,800;    0,000
345,109;   58,200;   59,400;    0,000
345,125;   72,600;   67,200;    0,000
345,140;   40,200;   53,000;    0,000
345,155;   -6,000;   42,800;    0,000
345,171;   77,600;   27,600;    0,000
345,186;   32,000;   19,000;    0,000
345,201;   23,400;   58,200;    0,000
345,217;   63,400;  117,000;    0,000
345,232;   84,800;   84,200;    0,000
345,247;   36,400;   38,200;    0,000
345,262;   57,200;   77,600;    0,000
345,278;   31,400;   64,600;    0,000
345,293;  117,400;  103,000;    0,000
345,308;   38,600;   55,400;    0,000
345,324;  114,800;   73,800;    0,000
345,339;   82,400;   72,000;    0,000
345,354;   91,200;   89,400;    0,000
345,369;   45,000;   80,200;    0,000
345,385;   91,000;  111,000;    0,000
345,400;   81,800;   91,800;    0,000
345,415;  138,200;  109,000;    0,000
345,430;   45,600;   33,600;    0,000
345,446;  114,400;   80,800;    0,000
345,461;  109,600;  102,200;    0,000
345,476;   86,800;   94,400;    0,000
345,491;  100,400;   84,000;    0,000
345,507;  122,400;   76,800;    0,000
345,522;   86,000;  116,600;    0,000
345,537;  113,600;  100,200;    0,000
345,552;  106,400;  104,400;    0,000
345,568;  103,400;  114,400;    0,000
345,583;   41,200;   41,000;    0,000
345,598;   87,200;   64,600;    0,000
345,613;   73,200;   75,800;    0,000
345,629;  134,800;   89,200;    0,000
345,644;   49,200;   85,200;    0,000
345,659;  119,600;  110,400;    0,000
345,674;   92,000;   76,400;    0,000
345,689;  124,800;   56,000;    0,000
345,705;   70,400;   73,400;    0,000
345,720;   82,800;   67,400;    0,000
345,735;   58,800;   51,400;    0,000
345,750;  105,800;   52,400;    0,000
345,766;  110,800;   82,800;    0,000
345,781;   78,000;   60,200;    0,000
345,796;  164,000;  148,600;    0,000
345,811;   81,000;   73,600;    0,000
345,826;   58,200;   86,200;    0,000
345,841;   57,000;   89,800;    0,000
345,857;   97,000;  109,200;    0,000
345,872;   79,000;   90,600;    0,000
345,887;   65,800;   53,800;    0,000
345,902;   79,200;   62,200;    0,000
345,917;   57,400;   18,200;    0,000
345,933;   83,800;   63,400;    0,000
345,948;   71,200;   32,800;    0,000
345,963;   85,000;   69,800;    0,000
345,978;   42,200;   55,600;    0,000
345,993;   61,400;   20,200;    0,000
346,008;   61,000;   65,000;    0,000
346,024;   77,400;   26,400;    0,000
346,039;   58,200;   45,600;    0,000
346,054;   59,400;   45,000;    0,000
346,069;   31,400;   32,400;    0,000
346,084;   36,400;   14,600;    0,000
346,099;   67,400;   46,400;    0,000
346,114;   39,400;   52,800;    0,000
346,130;   28,400;   50,400;    0,000
346,145;   46,000;   35,600;    0,000
346,160;   48,400;   46,200;    0,000
346,175;   56,400;   26,400;    0,000
346,190;   41,800;   26,600;    0,000
346,205;   73,000;   49,600;    0,000
346,220;   43,000;   39,400;    0,000
346,235;   46,000;   51,000;    0,000
346,251;   55,800;   47,800;    0,000
346,266;   96,200;   64,400;    0,000
346,281;   67,000;   33,600;    0,000
346,296;   46,600;   68,000;    0,000
346,311;   71,400;   58,400;    0,000
346,326;  102,000;   47,400;    0,000
346,341;   44,600;   67,000;    0,000
346,356;   98,600;  107,200;    0,000
346,371;   91,800;   85,600;    0,000
346,387;  112,200;  101,600;    0,000
346,402;   78,200;   79,400;    0,000
346,417;  112,400;   99,800;    0,000
346,432;  155,400;  158,000;    0,000
346,447;  171,800;  173,600;    0,000
346,462;  231,400;  234,400;    0,000
346,477;  380,800;  343,600;    0,000
346,492;  534,800;  534,800;    0,000
346,507;  829,400;  832,000;    0,000
346,522; 1336,800; 1418,000;    0,000
346,537; 2944,800; 2874,600;    0,000
346,552; 5990,400; 5931,600;    0,000
346,567;13216,000;13204,400;    0,000
346,582;26631,801;26802,000;    0,000
346,598;47866,199;47982,199;    0,000
346,613;58124,000;58289,199;    0,000
346,628;48711,801;48886,199;    0,000
346,643;30816,199;30884,600;    0,000
346,658;16980,801;16822,199;    0,000
346,673;10854,600;10832,000;    0,000
346,688; 7658,600; 7609,200;    0,000
346,703; 8296,800; 8357,200;    0,000
346,718;14092,200;13978,200;    0,000
346,733;25291,000;25305,199;    0,000
346,748;39892,801;40011,398;    0,000
346,763;42538,602;42488,199;    0,000
346,778;31335,000;31413,801;    0,000
346,793;18215,199;18106,000;    0,000
346,808;10141,600;10166,800;    0,000
346,823; 5900,800; 5811,400;    0,000
346,838; 3100,600; 3078,400;    0,000
346,853; 1826,600; 1850,600;    0,000
346,868; 1367,400; 1378,200;    0,000
346,883;  930,400;  978,200;    0,000
346,898;  667,800;  658,000;    0,000
346,913;  502,800;  550,800;    0,000
346,928;  460,000;  474,200;    0,000
346,943;  377,400;  403,400;    0,000
346,958;  421,000;  381,000;    0,000
346,973;  325,400;  334,600;    0,000
346,988;  326,600;  352,200;    0,000
347,003;  267,000;  301,200;    0,000
347,018;  287,000;  307,000;    0,000
347,033;  239,800;  244,000;    0,000
347,048;  209,000;  210,200;    0,000
347,063;  246,600;  199,800;    0,000
347,078;  218,200;  176,200;    0,000
347,093;  175,400;  190,200;    0,000
347,108;  236,200;  211,800;    0,000
347,123;  165,000;  189,600;    0,000
347,138;  162,000;  204,600;    0,000
347,153;  188,000;  171,800;    0,000
347,168;  217,600;  160,800;    0,000
347,183;  165,600;  184,800;    0,000
347,198;  164,400;  172,000;    0,000
347,213;  154,400;  157,200;    0,000
347,227;  160,600;  133,000;    0,000
347,242;  150,400;  108,400;    0,000
347,257;  106,600;  123,600;    0,000
347,272;   89,800;  117,600;    0,000
347,287;  104,000;  130,200;    0,000
347,302;  104,000;  100,600;    0,000
347,317;  139,000;  134,400;    0,000
347,332;  116,600;   91,200;    0,000
347,347;  137,000;   88,400;    0,000
347,362;   87,000;  111,200;    0,000
347,377;  112,200;  101,400;    0,000
347,392;  121,800;  129,400;    0,000
347,407;  123,800;  128,200;    0,000
347,421;   60,200;   71,800;    0,000
347,436;   90,600;   99,600;    0,000
347,451;  109,000;   87,200;    0,000
347,466;   90,800;  116,400;    0,000
347,481;   82,000;   61,800;    0,000
347,496;  101,200;   95,200;    0,000
347,511;   82,600;   66,400;    0,000
347,526;   97,400;  112,600;    0,000
347,541;   92,600;  117,000;    0,000
347,556;  121,600;  131,800;    0,000
347,570;  108,200;   74,200;    0,000
347,585;   89,600;   84,000;    0,000
347,600;   67,800;  104,000;    0,000
347,615;  141,400;  126,600;    0,000
347,630;   99,200;   77,200;    0,000
347,645;   85,000;   89,200;    0,000
347,660;  106,400;   94,800;    0,000
347,675;   93,600;  118,200;    0,000
347,689;  106,200;  108,600;    0,000
347,704;  102,200;   85,000;    0,000
347,719;   88,600;   92,400;    0,000
347,734;   80,600;  116,600;    0,000
347,749;   65,000;   80,600;    0,000
347,764;   90,600;   81,000;    0,000
347,779;   89,800;   86,400;    0,000
347,793;  106,000;  120,200;    0,000
347,808;   64,000;   68,400;    0,000
347,823;   81,600;   96,800;    0,000
347,838;   93,200;  123,800;    0,000
347,853;   75,200;   86,400;    0,000
347,868;   78,400;   87,600;    0,000
347,882;   75,600;   65,000;    0,000
347,897;   61,800;   93,400;    0,000
347,912;  135,200;  115,000;    0,000
347,927;  113,600;   83,600;    0,000
347,942;  109,800;   72,000;    0,000
347,956;   74,600;   55,000;    0,000
347,971;   73,400;  108,400;    0,000
347,986;   59,200;   58,800;    0,000
348,001;   89,000;   91,400;    0,000
348,016;   84,600;   32,400;    0,000
348,030;   79,200;   78,200;    0,000
348,045;   51,200;   74,400;    0,000
348,060;  111,800;   70,800;    0,000
348,075;   86,600;   65,000;    0,000
348,090;   84,600;   53,800;    0,000
348,104;   45,400;   52,800;    0,000
348,119;   29,200;   52,800;    0,000
348,134;   52,000;   68,800;    0,000
348,149;   72,800;   35,200;    0,000
348,164;   36,600;   79,800;    0,000
348,178;   32,600;   19,600;    0,000
348,193;   48,200;   37,000;    0,000
348,208;   95,800;   30,400;    0,000
348,223;   47,600;   52,800;    0,000
348,237;   41,000;   28,200;    0,000
348,252;   40,600;   50,400;    0,000
348,267;   41,800;   28,600;    0,000
348,282;   66,400;   58,200;    0,000
348,296;   47,200;   14,000;    0,000
348,311;   40,400;   69,800;    0,000
348,326;   57,400;   48,800;    0,000
348,341;   18,600;   50,200;    0,000
348,355;  100,200;   36,200;    0,000
348,370;   19,600;   41,600;    0,000
348,385;   39,400;   54,400;    0,000
348,400;   52,000;   27,400;    0,000
348,414;   61,200;   17,800;    0,000
348,429;   14,200;   12,600;    0,000
348,444;   40,000;   36,600;    0,000
348,458;   17,600;    5,200;    0,000
348,473;   50,000;   22,000;    0,000
348,488;   -6,800;   34,400;    0,000
348,503;   32,400;   10,800;    0,000
348,517;    8,400;   22,800;    0,000
348,532;   56,600;   39,800;    0,000
348,547;    0,800;    3,800;    0,000
348,561;   24,600;   37,200;    0,000
348,576;    9,400;   16,600;    0,000
348,591;   62,000;   15,000;    0,000
348,606;   -0,400;   29,000;    0,000
348,620;   51,600;   -3,600;    0,000
348,635;   20,800;   10,600;    0,000
348,650;  -11,600;   48,600;    0,000
348,664;    0,000;   -8,000;    0,000
348,679;   27,200;   48,800;    0,000
348,694;   23,200;   38,200;    0,000
348,708;   -2,200;    9,800;    0,000
348,723;   32,000;  -11,400;    0,000
348,738;   65,800;   45,800;    0,000
348,752;   -8,600;   12,800;    0,000
348,767;   29,400;   14,000;    0,000
348,782;   16,600;    6,000;    0,000
348,796;   62,800;    4,600;    0,000
348,811;  -10,200;   -0,400;    0,000
348,826;   18,200;   34,400;    0,000
348,840;   21,000;   -4,600;    0,000
348,855;   33,600;   51,400;    0,000
348,870;    5,000;    1,200;    0,000
348,884;   83,200;    5,600;    0,000
348,899;   13,400;   -0,200;    0,000
348,914;   31,400;   40,400;    0,000
348,928;  -18,000;  -23,600;    0,000
348,943;    4,000;   53,800;    0,000
348,957;    3,800;  -20,600;    0,000
348,972;   49,800;   36,000;    0,000
348,987;   17,000;   36,600;    0,000
349,001;   13,800;   -7,000;    0,000
349,016;   15,400;   18,200;    0,000
349,031;   24,400;   24,200;    0,000
349,045;    3,400;  -15,600;    0,000
349,060;    4,400;   23,600;    0,000
349,074;  -15,400;  -16,000;    0,000
349,089;   24,400;   17,800;    0,000
349,104;    5,400;    1,200;    0,000
349,118;   10,800;   16,200;    0,000
349,133;  -26,600;    1,800;    0,000
349,147;   17,400;    2,400;    0,000
349,162;  -16,800;   27,800;    0,000
349,177;   30,400;   59,400;    0,000
349,191;    1,400;   -1,800;    0,000
349,206;   34,800;   -9,000;    0,000
349,220;   17,600;   13,000;    0,000
349,235;   51,000;   32,000;    0,000
349,249;   21,400;   -0,600;    0,000
349,264;   30,800;    1,600;    0,000
349,279;    6,600;   -8,800;    0,000
349,293;   41,200;   48,400;    0,000
349,308;  -12,400;  -13,000;    0,000
349,322;   37,400;   32,800;    0,000
349,337;   35,800;   25,600;    0,000
349,351;   37,600;  -24,400;    0,000
349,366;   21,000;   22,400;    0,000
349,380;    8,000;   50,200;    0,000
349,395;  -47,200;   12,000;    0,000
349,410;   18,000;  -19,800;    0,000
349,424;   32,800;   -0,600;    0,000
349,439;    8,000;   30,200;    0,000
349,453;   14,800;  -27,000;    0,000
349,468;   26,200;   34,800;    0,000
349,482;  -32,600;   23,800;    0,000
349,497;   35,200;   25,200;    0,000
349,511;    1,400;   13,200;    0,000
349,526;   22,600;   21,200;    0,000
349,540;    5,800;   16,600;    0,000
349,555;   33,800;    9,000;    0,000
349,569;   31,200;  -13,000;    0,000
349,584;   -8,200;    4,600;    0,000
349,598;  -41,400;    6,200;    0,000
349,613;    3,200;    5,800;    0,000
349,627;   41,400;    0,000;    0,000
349,642;   13,000;   21,600;    0,000
349,656;    4,000;   26,600;    0,000
349,671;   15,400;   -6,600;    0,000
349,685;   27,800;   30,200;    0,000
349,700;  -12,400;  -13,000;    0,000
349,714;   -2,200;   18,200;    0,000
349,729;  -24,800;  -25,000;    0,000
349,743;   24,600;    9,400;    0,000
349,758;   45,800;   61,800;    0,000
349,772;  -13,400;    3,400;    0,000
349,787;   48,800;   -6,600;    0,000
349,801;   -8,800;  -20,200;    0,000
349,816;   10,600;  -15,400;    0,000
349,830;   26,200;   21,400;    0,000
349,845;    3,800;  -23,800;    0,000
349,859;  -52,400;  -48,000;    0,000
349,874;   63,000;    3,400;    0,000
349,888;  -12,000;   33,200;    0,000
349,903;   24,200;   19,600;    0,000
349,917;   32,600;   47,800;    0,000
349,931;   86,200;   80,000;    0,000
349,946;  129,400;  134,800;    0,000
349,960;  226,200;  202,600;    0,000
349,975;  327,400;  341,800;    0,000
349,989;  432,600;  447,000;    0,000
350,004;  325,800;  361,600;    0,000
350,018;  267,400;  260,000;    0,000
350,033;   94,200;  132,600;    0,000
350,047;   88,800;   99,200;    0,000
350,061;   34,400;   28,600;    0,000
350,076;    9,400;   23,200;    0,000
350,090;   16,800;  -11,800;    0,000
350,105;   14,800;   16,800;    0,000
350,119;   23,600;  -12,600;    0,000
350,133;   11,000;  -10,400;    0,000
350,148;   -5,600;    4,600;    0,000
350,162;   40,000;   13,600;    0,000
350,177;   12,000;   -3,600;    0,000
350,191;  -32,600;  -22,000;    0,000
350,205;  -20,400;   -7,200;    0,000
350,220;   35,600;   10,800;    0,000
350,234;    8,600;   39,400;    0,000
350,249;   12,800;   -7,600;    0,000
350,263;   -7,400;  -37,000;    0,000
350,277;  -30,200;   11,600;    0,000
350,292;   12,200;    2,000;    0,000
350,306;   -4,200;   13,800;    0,000
350,321;   -3,000;  -48,000;    0,000
350,335;    2,200;   -9,000;    0,000
350,349;  -22,600;  -26,600;    0,000
350,364;   19,200;   12,800;    0,000
350,378;   -0,400;    2,000;    0,000
350,392;  -18,600;   -9,800;    0,000
350,407;   -8,200;   21,200;    0,000
350,421;    1,400;   -1,800;    0,000
350,435;   -7,200;  -10,000;    0,000
350,450;   17,200;    2,200;    0,000
350,464;   11,000;    3,600;    0,000
350,479;   -8,600;   26,200;    0,000
350,493;   23,600;   -3,400;    0,000
350,507;   -1,600;  -16,200;    0,000
350,522;   -1,000;    6,200;    0,000
350,536;   -2,600;   -3,600;    0,000
350,550;  -13,800;   -9,600;    0,000
350,565;   21,000;   39,600;    0,000
350,579;   -4,000;  -59,200;    0,000
350,593;   32,600;   65,400;    0,000
350,608;   -6,400;  -37,000;    0,000
350,622;   21,000;   12,000;    0,000
350,636;    0,600;  -19,000;    0,000
350,650;   24,600;    6,600;    0,000
350,665;  -15,000;   14,200;    0,000
350,679;  -20,800;   16,800;    0,000
350,693;  -43,600;  -10,000;    0,000
350,708;   25,400;    0,000;    0,000
350,722;   52,000;  -21,000;    0,000
350,736;   18,800;   -3,000;    0,000
350,751;   10,000;  -11,600;    0,000
350,765;    4,800;  -31,000;    0,000
350,779;  -33,800;   -1,200;    0,000
350,793;   16,800;   -9,400;    0,000
350,808;   -0,200;  -22,600;    0,000
350,822;    4,400;    5,400;    0,000
350,836;   28,200;   37,400;    0,000
350,851;   11,200;  -12,200;    0,000
350,865;  -39,600;  -34,800;    0,000
350,879;   13,000;    7,000;    0,000
350,893;   60,000;   36,200;    0,000
350,908;   37,000;   -2,200;    0,000
350,922;  -42,000;  -26,000;    0,000
350,936;   30,400;   42,800;    0,000
350,950;  -13,800;  -35,000;    0,000
350,965;   35,600;   26,400;    0,000
350,979;  -17,400;  -13,600;    0,000
350,993;   11,200;  -18,200;    0,000
351,007;    3,200;  -36,800;    0,000
351,022;   13,000;   16,600;    0,000
351,036;    1,400;   -2,000;    0,000
351,050;   -4,200;   -1,400;    0,000
351,064;  -24,400;   -1,800;    0,000
351,079;   22,600;   18,800;    0,000
351,093;  -10,800;  -26,000;    0,000
351,107;    0,600;    6,600;    0,000
351,121;  -32,800;    5,400;    0,000
351,135;   19,600;   41,000;    0,000
351,150;  -21,200;   16,600;    0,000
351,164;    6,400;   12,000;    0,000
351,178;  -37,400;  -32,800;    0,000
351,192;   13,000;    1,200;    0,000
351,207;  -11,800;   -7,000;    0,000
351,221;   25,600;    1,400;    0,000
351,235;   19,600;   -3,200;    0,000
351,249;    5,400;   -8,600;    0,000
351,263;  -17,800;  -38,600;    0,000
351,278;    5,400;  -21,600;    0,000
351,292;    5,600;   27,000;    0,000
351,306;  -10,400;  -14,800;    0,000
351,320;  -41,000;   15,400;    0,000
351,334;   18,600;   12,600;    0,000
351,348;  -42,800;   34,800;    0,000
351,363;   18,400;  -18,600;    0,000
351,377;    0,400;  -15,800;    0,000
351,391;   -3,400;   -5,200;    0,000
351,405;    4,800;   10,400;    0,000
351,419;   46,800;   10,000;    0,000
351,434;  -15,200;   19,600;    0,000
351,448;    3,400;   10,600;    0,000
351,462;   25,200;   29,400;    0,000
351,476;   11,000;   -5,400;    0,000
351,490;   -9,200;   12,000;    0,000
351,504;   12,000;   35,000;    0,000
351,518;   -6,800;  -14,800;    0,000
351,533;   28,800;   21,800;    0,000
351,547;  -42,800;   31,800;    0,000
351,561;   22,600;  -18,400;    0,000
351,575;  -30,400;   27,000;    0,000
351,589;   39,600;   22,000;    0,000
351,603;  -16,400;  -35,800;    0,000
351,617;   16,800;   -5,000;    0,000
351,632;   -5,800;   17,600;    0,000
351,646;   61,600;    3,200;    0,000
351,660;   -7,400;   -0,600;    0,000
351,674;    4,800;    4,800;    0,000
351,688;    9,600;  -29,000;    0,000
351,702;   13,200;   37,600;    0,000
351,716;   17,400;    8,800;    0,000
351,730;   43,000;   21,400;    0,000
351,744;  -17,600;  -31,400;    0,000
351,759;   11,600;  -14,200;    0,000
351,773;    3,800;  -21,600;    0,000
351,787;  -17,600;    6,200;    0,000
351,801;    6,800;  -16,800;    0,000
351,815;   25,400;  -24,800;    0,000
351,829;    2,800;   -6,800;    0,000
351,843;    9,400;   14,200;    0,000
351,857;  -21,800;    2,600;    0,000
351,871;   18,000;    6,000;    0,000
351,885;  -52,200;   -9,000;    0,000
351,899;   36,200;   -6,600;    0,000
351,913;   18,000;   -6,800;    0,000
351,928;   -5,400;    5,600;    0,000
351,942;    6,800;   19,400;    0,000
351,956;   21,000;   -3,400;    0,000
351,970;  -14,800;   -8,600;    0,000
351,984;  -16,800;  -14,800;    0,000
351,998;   12,200;    0,800;    0,000
352,012;   12,800;   10,600;    0,000
352,026;    4,800;   -4,600;    0,000
352,040;   56,800;   -8,400;    0,000
352,054;   20,200;   -0,400;    0,000
352,068;   28,000;   63,400;    0,000
352,082;    0,200;   30,800;    0,000
352,096;   13,800;    6,800;    0,000
352,110;   -5,800;   31,200;    0,000
352,124;   -2,200;  -10,000;    0,000
352,138;  -21,800;  -17,600;    0,000
352,152;    9,200;  -26,200;    0,000
352,166;  -18,600;  -25,200;    0,000
352,180;   22,200;   43,200;    0,000
352,194;   -7,400;   11,400;    0,000
352,208;   28,600;    2,000;    0,000
352,222;  -29,400;  -21,000;    0,000
352,236;   43,400;   41,000;    0,000
352,250;  -12,800;  -27,000;    0,000
352,264;   34,000;   33,800;    0,000
352,278;    5,200;   11,200;    0,000
352,292;   59,000;   -1,000;    0,000
352,306;   10,200;  -30,400;    0,000
352,320;   -2,600;    0,400;    0,000
352,334;   -6,200;  -15,200;    0,000
352,348;   45,600;   63,600;    0,000
352,362;   -8,000;    6,000;    0,000
352,376;   13,800;   16,800;    0,000
352,390;    6,400;   -4,600;    0,000
352,404;    9,800;   -0,400;    0,000
352,418;  -33,600;    4,000;    0,000
352,432;   19,400;   17,600;    0,000
352,446;   12,200;   33,000;    0,000
352,460;   20,400;   45,400;    0,000
352,474;    8,600;   -6,200;    0,000
352,488;   33,000;  -14,400;    0,000
352,502;   -6,400;  -26,200;    0,000
352,516;   33,000;   16,000;    0,000
352,530;    1,000;  -14,800;    0,000
352,544;   26,200;   25,200;    0,000
352,558;   32,000;   -2,400;    0,000
352,572;   42,800;   68,800;    0,000
352,586;  -16,000;   20,800;    0,000
352,600;   20,400;    4,000;    0,000
352,613;  -29,200;    2,400;    0,000
352,627;   25,200;   20,000;    0,000
352,641;    5,400;  -36,800;    0,000
352,655;   18,800;   44,400;    0,000
352,669;   36,800;   12,600;    0,000
352,683;   -1,400;   12,800;    0,000
352,697;    1,000;   -9,600;    0,000
352,711;  -16,400;   24,000;    0,000
352,725;  -22,400;    1,800;    0,000
352,739;   43,600;   13,000;    0,000
352,753;  -18,200;    6,400;    0,000
352,767;   34,600;    9,000;    0,000
352,780;  -16,200;  -31,200;    0,000
352,794;    4,200;   11,400;    0,000
352,808;    9,800;   -7,800;    0,000
352,822;   37,400;  -10,200;    0,000
352,836;  -52,200;   24,200;    0,000
352,850;   43,200;  -11,000;    0,000
352,864;   16,000;    7,000;    0,000
352,878;  -12,400;   14,400;    0,000
352,892;  -19,200;  -11,000;    0,000
352,905;    5,000;   24,800;    0,000
352,919;  -13,000;  -15,800;    0,000
352,933;   35,400;    7,600;    0,000
352,947;  -14,400;  -53,800;    0,000
352,961;   -3,000;    5,200;    0,000
352,975;  -10,200;   10,800;    0,000
352,989;   14,200;   17,200;    0,000
353,003;   -6,400;  -25,800;    0,000
353,016;    8,600;  -10,200;    0,000
353,030;   26,800;   10,800;    0,000
353,044;   46,000;   11,800;    0,000
353,058;   -2,400;   11,800;    0,000
353,072;   47,200;   24,000;    0,000
353,086;  -15,600;    4,000;    0,000
353,099;   35,800;   13,800;    0,000
353,113;    8,200;   -5,800;    0,000
353,127;   36,200;  -18,200;    0,000
353,141;   13,400;  -20,200;    0,000
353,155;   22,800;  -21,600;    0,000
353,169;    8,800;   27,000;    0,000
353,182;    1,600;    2,600;    0,000
353,196;  -27,400;    5,400;    0,000
353,210;  -10,800;    1,800;    0,000
353,224;  -18,000;    8,800;    0,000
353,238;   41,600;  -22,600;    0,000
353,251;   50,000;   41,200;    0,000
353,265;   11,800;   11,400;    0,000
353,279;  -11,400;   20,200;    0,000
353,293;   38,800;   -8,600;    0,000
353,307;  -12,400;   -8,400;    0,000
353,320;   43,400;   -8,200;    0,000
353,334;  -29,200;   17,000;    0,000
353,348;   13,400;   24,000;    0,000
353,362;  -25,200;    3,400;    0,000
353,376;   17,400;   15,200;    0,000
353,389;  -11,800;   -6,000;    0,000
353,403;   56,400;   10,800;    0,000
353,417;  -20,400;  -26,000;    0,000
353,431;   -1,600;    2,600;    0,000
353,445;  -10,600;   -7,400;    0,000
353,458;   13,200;  -15,000;    0,000
353,472;   40,400;   -9,400;    0,000
353,486;   16,400;   -0,400;    0,000
353,500;    2,800;   20,000;    0,000
353,513;   31,400;   50,800;    0,000
353,527;   11,400;   11,200;    0,000
353,541;   11,200;  -19,600;    0,000
353,555;   23,000;    0,800;    0,000
353,568;   36,000;   30,200;    0,000
353,582;   39,600;    2,200;    0,000
353,596;   54,600;   26,600;    0,000
353,610;   -1,200;  -37,200;    0,000
353,623;    7,400;   -4,000;    0,000
353,637;    6,600;  -14,600;    0,000
353,651;   30,400;   -5,600;    0,000
353,664;   20,800;   15,000;    0,000
353,678;   11,200;    3,400;    0,000
353,692;  -38,200;  -15,800;    0,000
353,706;  -14,200;    3,400;    0,000
353,719;  -26,000;   10,600;    0,000
353,733;  -13,200;   13,400;    0,000
353,747;  -18,400;  -38,400;    0,000
353,760;  -44,600;   15,000;    0,000
353,774;   -7,400;  -12,600;    0,000
353,788;   24,400;    2,600;    0,000
353,802;  -19,400;   -2,400;    0,000
353,815;   13,200;   27,400;    0,000
353,829;    2,800;   29,800;    0,000
353,843;   21,800;    3,600;    0,000
353,856;  -16,200;   15,400;    0,000
353,870;   20,800;  -16,200;    0,000
353,884;  -21,000;   24,400;    0,000
353,897;   38,200;   20,600;    0,000
353,911;    0,600;   15,200;    0,000
353,925;   37,200;   29,400;    0,000
353,938;   -2,200;   30,600;    0,000
353,952;   23,800;   40,000;    0,000
353,966;   13,200;   -5,200;    0,000
353,979;   -9,600;   19,200;    0,000
353,993;   24,000;  -28,000;    0,000
354,007;   29,600;  -12,400;    0,000
354,020;    4,600;  -39,800;    0,000
354,034;   10,800;   13,600;    0,000
354,048;  -17,600;  -33,600;    0,000
354,061;   12,000;   -1,600;    0,000
354,075;  -28,000;    8,200;    0,000
354,089;    3,800;  -31,800;    0,000
354,102;   10,600;  -27,200;    0,000
354,116;   -1,200;   30,000;    0,000
354,129;   42,600;   45,400;    0,000
354,143;    1,400;  -16,400;    0,000
354,157;  -12,000;    3,000;    0,000
354,170;   16,600;   27,600;    0,000
354,184;   83,800;   96,600;    0,000
354,198;   12,200;    8,400;    0,000
354,211;  -17,600;  -38,000;    0,000
354,225;    3,200;   12,600;    0,000
354,238;   12,200;   -7,800;    0,000
354,252;  -25,000;   -5,600;    0,000
354,266;  -29,000;    0,000;    0,000
354,279;   -9,200;   10,200;    0,000
354,293;  -30,800;   31,800;    0,000
354,306;   41,800;   30,000;    0,000
354,320;    7,200;    2,000;    0,000
354,334;   53,400;   18,000;    0,000
354,347;  -25,800;  -27,400;    0,000
354,361;   40,800;   25,000;    0,000
354,374;  -18,600;    8,800;    0,000
354,388;   26,800;   11,800;    0,000
354,401;    4,400;    1,800;    0,000
354,415;   34,200;   15,800;    0,000
354,429;   -5,400;   22,200;    0,000
354,442;   39,800;   -2,000;    0,000
354,456;   -3,800;   30,000;    0,000
354,469;   29,000;   28,200;    0,000
354,483;  -29,000;   -2,800;    0,000
354,496;  153,600;  131,800;    0,000
354,510;   -0,400;   21,000;    0,000
354,524;    4,000;   21,200;    0,000
354,537;  -26,200;  -33,200;    0,000
354,551;   16,000;   34,400;    0,000
354,564;    0,000;  -27,600;    0,000
354,578;   -7,600;   12,000;    0,000
354,591;   11,200;  -25,600;    0,000
354,605;   38,600;   54,400;    0,000
354,618;  -38,200;   -4,400;    0,000
354,632;   16,800;    6,600;    0,000
354,645;   -8,200;  -14,400;    0,000
354,659;    8,600;   -7,800;    0,000
354,672;  -24,200;   25,000;    0,000
354,686;  -21,600;  -13,600;    0,000
354,699;   39,000;   11,000;    0,000
354,713;   -9,400;    7,800;    0,000
354,726;  -34,800;    8,200;    0,000
354,740;   12,000;   16,600;    0,000
354,753;    6,600;    0,800;    0,000
354,767;   -3,400;  -19,600;    0,000
354,780;  -38,600;   10,200;    0,000
354,794;   48,000;   10,600;    0,000
354,807;    6,000;   21,000;    0,000
354,821;  -28,000;   28,000;    0,000
354,834;    6,800;   11,600;    0,000
354,848;   33,000;   18,600;    0,000
354,861;  -17,000;   28,600;    0,000
354,875;   28,800;   -7,600;    0,000
354,888;   17,400;  -12,600;    0,000
354,902;    1,600;    3,600;    0,000
354,915;   -6,800;    1,800;    0,000
354,929;   58,200;   -7,800;    0,000
354,942;  -14,600;   14,200;    0,000
354,956;    7,400;   15,400;    0,000
354,969;    0,800;   -8,600;    0,000
354,983;   21,200;   -4,400;    0,000
354,996;    6,600;  -23,400;    0,000
355,010;   29,400;   41,600;    0,000
355,023;    0,200;   28,000;    0,000
355,036;   70,400;   22,000;    0,000
355,050;   20,200;   -6,800;    0,000
355,063;   14,800;  -11,400;    0,000
355,077;  -41,600;  -14,600;    0,000
355,090;   -8,000;   15,800;    0,000
355,104;  -28,000;  -18,000;    0,000
355,117;  -29,600;   22,600;    0,000
355,130;  -25,000;  -31,600;    0,000
355,144;    8,000;   -8,400;    0,000
355,157;  -26,400;    0,000;    0,000
355,171;   14,200;    8,800;    0,000
355,184;   -0,600;   13,800;    0,000
355,198;   -9,600;  -22,200;    0,000
355,211;   -9,000;  -20,800;    0,000
355,224;   27,400;  -14,800;    0,000
355,238;  -34,000;   -4,400;    0,000
355,251;   20,800;   12,400;    0,000
355,265;  -15,200;    2,600;    0,000
355,278;   22,800;   35,800;    0,000
355,291;  -19,000;  -26,600;    0,000
355,305;   17,200;   39,800;    0,000
355,318;    6,000;    8,200;    0,000
355,332;   20,000;   -0,200;    0,000
355,345;  -32,200;  -48,600;    0,000
355,358;   14,400;   -5,000;    0,000
355,372;  -17,800;   -7,600;    0,000
355,385;   13,200;   28,600;    0,000
355,398;  -25,000;  -16,000;    0,000
355,412;   18,600;   20,800;    0,000
355,425;    0,000;   -9,200;    0,000
355,438;   33,800;    9,200;    0,000
355,452;   11,000;   25,200;    0,000
355,465;   76,200;   56,800;    0,000
355,479;   -4,000;   34,400;    0,000
355,492;   19,800;  -18,200;    0,000
355,505;   18,200;   10,200;    0,000
355,519;   20,600;   -3,400;    0,000
355,532;   11,400;   12,800;    0,000
355,545;   -4,800;   -4,400;    0,000
355,559;   19,600;   18,400;    0,000
355,572;   -2,600;   33,800;    0,000
355,585;  -12,800;    2,400;    0,000
355,599;  -13,000;  -15,200;    0,000
355,612;   -7,800;   -8,200;    0,000
355,625;  -31,200;   11,600;    0,000
355,639;   -6,400;   -4,600;    0,000
355,652;    6,200;    0,000;    0,000
355,665;   -0,800;  -21,600;    0,000
355,679;    1,600;  -16,400;    0,000
355,692;  -32,000;    4,800;    0,000
355,705;   11,400;    4,400;    0,000
355,718;  -35,800;  -32,000;    0,000
355,732;    9,000;    0,800;    0,000
355,745;   -2,200;   31,400;    0,000
355,758;  -10,000;   -0,400;    0,000
355,772;    5,600;   19,400;    0,000
355,785;  -11,800;  -13,400;    0,000
355,798;    4,200;    2,800;    0,000
355,811;   14,000;  -37,400;    0,000
355,825;   -5,000;  -15,600;    0,000
355,838;   16,400;   21,000;    0,000
355,851;  -26,800;  -11,200;    0,000
355,865;   -6,600;   32,600;    0,000
355,878;  -33,800;   18,200;    0,000
355,891;   43,200;    3,200;    0,000
355,904;    1,800;    3,800;    0,000
355,918;   21,400;   -6,000;    0,000
355,931;   -5,600;   -4,000;    0,000
355,944;   37,000;   -8,600;    0,000
355,957;   -9,400;   -1,400;    0,000
355,971;   29,800;   19,400;    0,000
355,984;  -29,600;  -18,200;    0,000
355,997;   -4,400;  -12,000;    0,000
356,010;    0,800;   44,200;    0,000
356,024;   46,800;   26,000;    0,000
356,037;   19,400;   24,400;    0,000
356,050;   14,800;   -6,000;    0,000
356,063;   17,600;   -2,000;    0,000
356,077;   46,200;    3,200;    0,000
356,090;  -52,000;  -15,400;    0,000
356,103;   18,600;    8,800;    0,000
356,116;    9,400;  -17,600;    0,000
356,129;   19,600;   30,200;    0,000
356,143;  -19,400;   -6,800;    0,000
356,156;    5,800;   27,400;    0,000
356,169;    6,000;   -7,400;    0,000
356,182;   23,400;    1,600;    0,000
356,196;  -17,800;  -37,800;    0,000
356,209;   13,800;   -0,600;    0,000
356,222;   -3,800;  -49,400;    0,000
356,235;   13,400;    3,200;    0,000
356,248;  -23,400;   10,000;    0,000
356,261;   37,200;   20,200;    0,000
356,275;    9,200;    3,400;    0,000
356,288;   19,200;  -29,400;    0,000
356,301;   -9,200;   17,400;    0,000
356,314;   27,000;   -7,800;    0,000
356,327;  -14,800;  -20,600;    0,000
356,341;   22,200;    0,200;    0,000
356,354;   -7,800;  -44,600;    0,000
356,367;   37,400;   29,200;    0,000
356,380;  -25,400;   -9,200;    0,000
356,393;  -21,200;   -8,000;    0,000
356,406;   11,000;  -17,400;    0,000
356,420;   24,600;   18,000;    0,000
356,433;  -16,600;  -17,000;    0,000
356,446;   -5,800;  -19,800;    0,000
356,459;  -14,600;   -2,600;    0,000
356,472;   -3,000;    0,000;    0,000
356,485;   -4,600;    0,200;    0,000
356,498;    8,800;   19,600;    0,000
356,512;  -31,800;   14,000;    0,000
356,525;   17,000;   -3,800;    0,000
356,538;  -27,000;   -6,000;    0,000
356,551;    6,800;    9,200;    0,000
356,564;   -4,800;    3,200;    0,000
356,577;  -12,400;   13,400;    0,000
356,590;   -7,800;  -21,800;    0,000
356,603;   -7,600;  -10,800;    0,000
356,617;   28,600;    9,400;    0,000
356,630;    7,600;   29,600;    0,000
356,643;  -32,600;   35,400;    0,000
356,656;   28,000;   15,800;    0,000
356,669;    5,400;   12,800;    0,000
356,682;   22,800;  -21,000;    0,000
356,695;    3,800;  -35,600;    0,000
356,708;   15,400;    4,000;    0,000
356,721;    1,600;    5,200;    0,000
356,734;   16,600;   33,200;    0,000
356,748;   -9,400;    9,200;    0,000
356,761;    3,000;    8,600;    0,000
356,774;  -33,400;  -10,200;    0,000
356,787;    1,200;    1,000;    0,000
356,800;  -13,400;    0,600;    0,000
356,813;   59,000;   34,000;    0,000
356,826;  -47,200;    5,000;    0,000
356,839;   36,000;   -3,600;    0,000
356,852;  -14,000;  -46,000;    0,000
356,865;  -22,400;  -31,800;    0,000
356,878;  -11,600;  -27,200;    0,000
356,891;  -16,200;   -9,600;    0,000
356,904;  -22,000;   29,400;    0,000
356,917;   26,000;   -5,000;    0,000
356,930;  -30,000;  -33,600;    0,000
356,943;   41,600;    4,400;    0,000
356,957;   35,200;   -5,800;    0,000
356,970;   -8,000;    6,400;    0,000
356,983;  -32,000;  -28,800;    0,000
356,996;   74,600;   17,600;    0,000
357,009;    1,000;  -11,600;    0,000
357,022;   13,400;   26,000;    0,000
357,035;   -1,800;    5,000;    0,000
357,048;   25,200;  -16,600;    0,000
357,061;  -30,600;    6,800;    0,000
357,074;    4,800;    9,800;    0,000
357,087;   -0,200;   -9,000;    0,000
357,100;   -7,800;   39,800;    0,000
357,113;   12,200;   16,200;    0,000
357,126;    0,400;  -17,400;    0,000
357,139;   14,800;  -21,000;    0,000
357,152;   31,800;   19,600;    0,000
357,165;  -17,400;  -27,800;    0,000
357,178;  -23,600;   16,800;    0,000
357,191;  -40,200;   -8,200;    0,000
357,204;   31,400;   38,600;    0,000
357,217;   12,400;  -34,200;    0,000
357,230;   13,800;   32,600;    0,000
357,243;  -17,400;    7,800;    0,000
357,256;   -1,400;  -11,600;    0,000
357,269;  -21,400;  -31,000;    0,000
357,282;   12,800;    6,600;    0,000
357,295;   -2,000;    2,200;    0,000
357,308;   24,800;   12,400;    0,000
357,320;   -3,800;  -20,800;    0,000
357,333;   64,000;    5,000;    0,000
357,346;   -3,000;   -0,600;    0,000
357,359;   28,000;  -13,600;    0,000
357,372;  -26,400;   31,000;    0,000
357,385;   -0,600;    3,000;    0,000
357,398;  -26,400;    4,600;    0,000
357,411;    6,800;   -3,600;    0,000
357,424;   10,400;   29,000;    0,000
357,437;   46,600;    9,800;    0,000
357,450;  -45,600;   17,000;    0,000
357,463;    0,200;    9,800;    0,000
357,476;  -14,600;   -0,800;    0,000
357,489;   66,600;   68,800;    0,000
357,502;  -24,200;   -0,800;    0,000
357,515;  -18,200;  -11,600;    0,000
357,528;   16,600;   12,200;    0,000
357,540;  -17,200;   34,600;    0,000
357,553;   11,000;    0,200;    0,000
357,566;   10,400;   26,800;    0,000
357,579;    2,400;  -30,800;    0,000
357,592;   22,000;    9,000;    0,000
357,605;    8,000;   22,400;    0,000
357,618;   31,000;   33,600;    0,000
357,631;   16,000;   16,400;    0,000
357,644;   10,400;    7,600;    0,000
357,657;   -3,000;    9,400;    0,000
357,669;   45,000;   -0,800;    0,000
357,682;  -18,200;    7,600;    0,000
357,695;    1,400;    8,200;    0,000
357,708;   11,600;    4,600;    0,000
357,721;   25,600;  -26,800;    0,000
357,734;   -3,400;   -2,400;    0,000
357,747;   17,200;   30,800;    0,000
357,760;  -12,200;    5,200;    0,000
357,772;   18,800;   46,200;    0,000
357,785;  -12,200;    9,600;    0,000
357,798;    1,000;  -41,200;    0,000
357,811;  -14,600;  -25,200;    0,000
357,824;   20,000;  -17,400;    0,000
357,837;   23,400;  -12,000;    0,000
357,850;  -16,800;  -11,400;    0,000
357,862;  -11,800;   -5,200;    0,000
357,875;   27,200;   -0,400;    0,000
357,888;  -46,600;  -11,000;    0,000
357,901;   28,000;    1,200;    0,000
357,914;   11,800;  -13,600;    0,000
357,927;   61,800;    1,200;    0,000
357,939;  -19,400;  -15,200;    0,000
357,952;   37,600;   15,200;    0,000
357,965;   -8,000;   22,600;    0,000
357,978;  -18,600;    2,800;    0,000
357,991;   -0,400;    5,200;    0,000
358,003;  -28,000;  -16,800;    0,000
358,016;   17,400;   18,400;    0,000
358,029;    5,000;   11,800;    0,000
358,042;   15,600;   18,200;    0,000
358,055;   10,800;   10,600;    0,000
358,067;   16,800;  -25,400;    0,000
358,080;   16,600;   22,000;    0,000
358,093;   -2,400;   -4,800;    0,000
358,106;   27,600;    4,200;    0,000
358,119;  -13,800;    5,000;    0,000
358,131;    6,400;    9,000;    0,000
358,144;  -25,200;  -34,800;    0,000
358,157;   16,000;   24,400;    0,000
358,170;    6,000;    8,200;    0,000
358,183;   52,800;   49,600;    0,000
358,195;   -1,200;  -17,000;    0,000
358,208;   -1,400;  -41,000;    0,000
358,221;    0,800;    5,000;    0,000
358,234;    8,000;   44,800;    0,000
358,246;    4,000;    5,200;    0,000
358,259;    1,000;   13,200;    0,000
358,272;  -17,400;   -2,200;    0,000
358,285;   20,600;   14,200;    0,000
358,297;  -23,000;   40,600;    0,000
358,310;   22,800;   43,800;    0,000
358,323;   63,000;    4,800;    0,000
358,336;   15,600;  -17,000;    0,000
358,348;  -10,400;   17,800;    0,000
358,361;   26,400;   12,600;    0,000
358,374;   24,200;   22,800;    0,000
358,387;   28,200;   24,400;    0,000
358,399;   16,600;   40,400;    0,000
358,412;   16,200;   17,800;    0,000
358,425;   -9,000;  -24,400;    0,000
358,437;   17,600;   21,400;    0,000
358,450;    7,400;   -8,200;    0,000
358,463;    0,600;    6,800;    0,000
358,476;    1,000;    4,000;    0,000
358,488;   22,800;   -8,800;    0,000
358,501;    5,400;  -14,800;    0,000
358,514;   18,600;  -11,400;    0,000
358,526;  -29,200;    4,800;    0,000
358,539;   49,200;   26,200;    0,000
358,552;  -34,400;   12,000;    0,000
358,564;    4,400;  -64,200;    0,000
358,577;   24,600;   11,200;    0,000
358,590;   15,600;   -9,600;    0,000
358,602;    1,000;    6,000;    0,000
358,615;   62,000;   43,600;    0,000
358,628;    7,400;    4,600;    0,000
358,641;  -17,200;    7,800;    0,000
358,653;  -24,400;  -17,200;    0,000
358,666;   25,200;   -0,200;    0,000
358,678;   30,000;   34,800;    0,000
358,691;   33,800;   29,400;    0,000
358,704;   36,600;   21,400;    0,000
358,716;   12,000;   -4,600;    0,000
358,729;  -10,600;   -7,400;    0,000
358,742;    8,200;   35,600;    0,000
358,754;    3,600;   26,800;    0,000
358,767;   14,800;  -16,600;    0,000
358,780;    2,200;   -3,800;    0,000
358,792;   44,600;    3,800;    0,000
358,805;   12,600;  -29,800;    0,000
358,818;   -8,000;  -44,600;    0,000
358,830;  -14,800;   -2,800;    0,000
358,843;   32,600;   31,800;    0,000
358,855;  -44,400;   -4,400;    0,000
358,868;   47,000;   24,400;    0,000
358,881;  -25,200;  -12,000;    0,000
358,893;  -15,200;  -22,400;    0,000
358,906;  -47,200;   -9,200;    0,000
358,919;   14,000;   21,000;    0,000
358,931;   -3,400;  -19,000;    0,000
358,944;   11,600;   11,200;    0,000
358,956;   18,200;   -8,400;    0,000
358,969;   16,400;   39,400;    0,000
358,982;    9,200;   35,400;    0,000
358,994;   41,400;   28,600;    0,000
359,007;   20,200;    3,400;    0,000
359,019;   61,000;   43,400;    0,000
359,032;   -7,000;   30,800;    0,000
359,044;   64,000;   30,000;    0,000
359,057;    2,200;    9,600;    0,000
359,070;   50,000;   15,800;    0,000
359,082;   67,600;   98,200;    0,000
359,095;   24,000;   16,800;    0,000
359,107;  -25,600;   -5,600;    0,000
359,120;   40,600;    0,400;    0,000
359,132;   -9,800;   36,400;    0,000
359,145;    5,600;    8,000;    0,000
359,158;   -5,600;   -2,400;    0,000
359,170;   37,400;    4,800;    0,000
359,183;   -4,400;   30,600;    0,000
359,195;   24,200;   49,400;    0,000
359,208;   -8,800;   -9,200;    0,000
359,220;   21,400;   43,600;    0,000
359,233;   20,800;   17,200;    0,000
359,245;   10,400;    3,200;    0,000
359,258;   -9,400;   16,400;    0,000
359,270;   20,200;   30,200;    0,000
359,283;   43,600;  -32,600;    0,000
359,296;   13,600;   25,600;    0,000
359,308;   -7,000;   28,000;    0,000
359,321;    9,600;   12,200;    0,000
359,333;   22,600;   65,200;    0,000
359,346;   41,600;   27,400;    0,000
359,358;   21,400;   20,000;    0,000
359,371;   14,000;   -2,000;    0,000
359,383;   26,200;    0,000;    0,000
359,396;   44,400;   58,600;    0,000
359,408;   59,600;   67,400;    0,000
359,421;   26,200;   -8,800;    0,000
359,433;   24,000;   37,400;    0,000
359,446;   37,000;   16,400;    0,000
359,458;   15,400;   20,800;    0,000
359,471;   69,600;   17,400;    0,000
359,483;  -14,000;    1,400;    0,000
359,496;   55,200;   75,400;    0,000
359,508;   -3,600;   11,200;    0,000
359,520;   31,400;   19,200;    0,000
359,533;   32,200;   38,600;    0,000
359,545;   57,200;   61,400;    0,000
359,558;    1,000;    9,600;    0,000
359,570;   18,000;   31,200;    0,000
359,583;   73,400;   56,800;    0,000
359,595;   67,800;   15,200;    0,000
359,608;    8,800;   47,400;    0,000
359,620;   39,600;   29,400;    0,000
359,633;   20,000;   10,800;    0,000
359,645;   36,000;   46,000;    0,000
359,658;   68,800;   43,600;    0,000
359,670;   58,800;   59,400;    0,000
359,682;   17,400;   50,400;    0,000
359,695;   53,800;   71,600;    0,000
359,707;   42,600;   69,400;    0,000
359,720;    8,400;   14,200;    0,000
359,732;   34,200;   49,800;    0,000
359,745;   12,600;   40,400;    0,000
359,757;   34,400;   58,800;    0,000
359,769;   50,400;   58,200;    0,000
359,782;   51,000;   70,400;    0,000
359,794;   79,200;   71,800;    0,000
359,807;   59,200;   15,000;    0,000
359,819;   42,200;   55,400;    0,000
359,831;   39,400;   43,400;    0,000
359,844;   46,400;   60,200;    0,000
359,856;   46,800;   80,000;    0,000
359,869;   51,800;   80,000;    0,000
359,881;   26,200;   34,000;    0,000
359,893;   60,000;   18,200;    0,000
359,906;   40,400;  113,800;    0,000
359,918;   81,800;   74,600;    0,000
359,930;   33,000;   60,000;    0,000
359,943;   89,800;   57,400;    0,000
359,955;    6,000;   19,800;    0,000
359,968;   26,000;   21,200;    0,000
359,980;   25,600;    6,200;    0,000
359,992;   30,000;   55,800;    0,000
360,005;   12,600;   14,800;    0,000
360,017;   61,400;   53,800;    0,000
360,029;   49,800;   54,000;    0,000
360,042;   92,400;   65,200;    0,000
360,054;   50,200;   56,200;    0,000
360,066;   91,800;   85,400;    0,000
360,079;   59,800;   56,600;    0,000
360,091;   54,200;  101,000;    0,000
360,103;   42,000;   73,400;    0,000
360,116;   46,600;   49,200;    0,000
360,128;   52,800;   90,000;    0,000
360,141;   77,400;   59,800;    0,000
360,153;   42,800;   43,200;    0,000
360,165;   63,400;   57,800;    0,000
360,177;   -6,800;   36,000;    0,000
360,190;   30,200;   45,800;    0,000
360,202;   21,200;   52,800;    0,000
360,214;   13,600;   44,800;    0,000
360,227;   48,000;   53,800;    0,000
360,239;   68,800;   84,800;    0,000
360,251;   44,800;   48,200;    0,000
360,264;   68,600;   34,000;    0,000
360,276;   57,200;   36,600;    0,000
360,288;   51,600;   67,200;    0,000
360,301;   55,200;   30,000;    0,000
360,313;   58,000;   69,200;    0,000
360,325;   24,600;   47,800;    0,000
360,337;   51,000;   37,800;    0,000
360,350;   13,200;   67,200;    0,000
360,362;   47,400;   42,000;    0,000
360,374;   11,600;   73,400;    0,000
360,387;   57,400;   21,800;    0,000
360,399;   36,800;   38,800;    0,000
360,411;   20,000;   55,200;    0,000
360,423;    8,800;   15,800;    0,000
360,436;   63,200;   47,000;    0,000
360,448;   62,000;   32,000;    0,000
360,460;   55,600;   41,800;    0,000
360,472;  -20,400;  -24,400;    0,000
360,485;   25,800;   51,600;    0,000
360,497;   39,200;   50,200;    0,000
360,509;   51,400;    9,200;    0,000
360,521;   -6,200;   34,000;    0,000
360,534;   84,000;   70,600;    0,000
360,546;    9,000;   44,000;    0,000
360,558;   59,000;   44,200;    0,000
360,570;   21,200;   36,600;    0,000
360,582;   64,200;   48,200;    0,000
360,595;    1,200;   34,800;    0,000
360,607;   78,800;   65,800;    0,000
360,619;   21,400;   67,000;    0,000
360,631;   62,600;   85,000;    0,000
360,644;   22,800;   49,400;    0,000
360,656;   16,000;   29,400;    0,000
360,668;   55,600;   33,800;    0,000
360,680;   58,600;   38,200;    0,000
360,692;   49,200;   80,200;    0,000
360,705;   48,200;   15,400;    0,000
360,717;   18,600;   15,800;    0,000
360,729;   46,600;   50,000;    0,000
360,741;   50,200;   56,000;    0,000
360,753;   79,600;   27,600;    0,000
360,766;   35,000;   10,200;    0,000
360,778;   87,600;   76,400;    0,000
360,790;   63,000;   37,800;    0,000
360,802;   64,600;   90,400;    0,000
360,814;   66,600;   67,800;    0,000
360,826;  170,600;  178,600;    0,000
360,839;   50,200;   84,200;    0,000
360,851;  130,600;  144,600;    0,000
360,863;   69,600;  117,600;    0,000
360,875;  135,800;  136,000;    0,000
360,887;  167,400;  157,400;    0,000
360,899;  267,200;  225,800;    0,000
360,912;  269,400;  296,600;    0,000
360,924;  504,000;  475,200;    0,000
360,936;  692,400;  688,600;    0,000
360,948; 1097,200; 1087,200;    0,000
360,960; 1848,200; 1839,000;    0,000
360,972; 3136,400; 3176,000;    0,000
360,984; 5597,800; 5573,800;    0,000
360,997; 9889,200;10059,800;    0,000
361,009;15449,400;15426,800;    0,000
361,021;26338,400;26343,400;    0,000
361,033;36817,398;36735,199;    0,000
361,045;39712,398;39653,602;    0,000
361,057;32770,000;32777,199;    0,000
361,069;21894,600;21902,199;    0,000
361,081;13090,400;13226,800;    0,000
361,093; 7570,200; 7586,400;    0,000
361,106; 4543,800; 4552,000;    0,000
361,118; 2725,800; 2686,400;    0,000
361,130; 1806,000; 1810,800;    0,000
361,142; 1409,800; 1379,400;    0,000
361,154; 1154,600; 1190,200;    0,000
361,166; 1114,600; 1086,200;    0,000
361,178; 1009,800; 1098,800;    0,000
361,190; 1250,400; 1245,400;    0,000
361,202; 1836,600; 1833,000;    0,000
361,214; 2940,800; 2970,200;    0,000
361,226; 4951,600; 5084,400;    0,000
361,239; 8124,600; 8161,000;    0,000
361,251;12964,400;13098,400;    0,000
361,263;20591,600;20391,199;    0,000
361,275;26064,400;26181,400;    0,000
361,287;24475,199;24476,000;    0,000
361,299;18554,000;18332,000;    0,000
361,311;11613,200;11499,200;    0,000
361,323; 6775,800; 6728,000;    0,000
361,335; 3889,800; 3919,400;    0,000
361,347; 2448,600; 2425,800;    0,000
361,359; 1575,600; 1547,600;    0,000
361,371; 1231,000; 1216,800;    0,000
361,383; 1235,600; 1221,600;    0,000
361,395; 1438,400; 1471,400;    0,000
361,407; 1734,600; 1772,600;    0,000
361,419; 2424,200; 2399,200;    0,000
361,431; 2971,600; 2929,800;    0,000
361,443; 2885,400; 2866,400;    0,000
361,455; 2229,600; 2232,800;    0,000
361,467; 1469,800; 1489,800;    0,000
361,479;  946,000;  917,400;    0,000
361,491;  580,600;  576,800;    0,000
361,503;  413,000;  427,600;    0,000
361,515;  305,400;  319,600;    0,000
361,527;  231,400;  270,800;    0,000
361,539;  191,600;  221,400;    0,000
361,551;  187,800;  212,800;    0,000
361,563;  148,200;  155,400;    0,000
361,575;  186,600;  191,800;    0,000
361,587;  140,800;  162,200;    0,000
361,599;  203,200;  150,200;    0,000
361,611;  112,000;  143,200;    0,000
361,623;  118,400;  174,000;    0,000
361,635;  141,400;  136,400;    0,000
361,647;  116,000;  151,000;    0,000
361,659;  103,400;  147,200;    0,000
361,671;  111,400;  126,600;    0,000
361,683;  124,800;   99,800;    0,000
361,695;   94,600;   97,600;    0,000
361,707;   97,400;  108,000;    0,000
361,719;   88,000;   80,000;    0,000
361,731;   85,600;  109,000;    0,000
361,743;   67,200;   90,600;    0,000
361,755;   66,400;   58,200;    0,000
361,767;   75,400;   77,400;    0,000
361,779;   62,000;  105,600;    0,000
361,791;   74,200;   56,800;    0,000
361,803;   38,800;   92,400;    0,000
361,815;  104,600;   83,600;    0,000
361,827;   92,600;   93,200;    0,000
361,839;   76,800;   75,200;    0,000
361,850;   76,800;   79,600;    0,000
361,862;  114,000;   77,600;    0,000
361,874;   55,200;   62,800;    0,000
361,886;  113,800;   83,800;    0,000
361,898;   80,000;   49,600;    0,000
361,910;   74,200;  103,800;    0,000
361,922;   42,400;   28,200;    0,000
361,934;   71,000;   76,200;    0,000
361,946;   47,800;   64,200;    0,000
361,958;  120,200;   79,600;    0,000
361,970;   33,400;   41,200;    0,000
361,981;   75,400;   52,600;    0,000
361,993;   71,600;   68,400;    0,000
362,005;   56,400;   60,600;    0,000
362,017;   72,200;   83,200;    0,000
362,029;   82,000;   63,200;    0,000
362,041;   68,600;   58,400;    0,000
362,053;   52,800;   32,600;    0,000
362,065;   22,400;   66,400;    0,000
362,077;   81,600;   56,400;    0,000
362,088;   43,800;   46,200;    0,000
362,100;   68,600;   53,200;    0,000
362,112;   50,800;   21,400;    0,000
362,124;  100,000;   38,800;    0,000
362,136;   44,600;   26,200;    0,000
362,148;   78,400;   37,800;    0,000
362,160;   91,000;   55,400;    0,000
362,171;   86,800;   54,200;    0,000
362,183;   27,600;   21,800;    0,000
362,195;   64,000;   51,400;    0,000
362,207;   79,400;   49,800;    0,000
362,219;   82,800;   37,400;    0,000
362,231;   68,600;   62,400;    0,000
362,242;   80,200;   90,400;    0,000
362,254;   36,400;   46,600;    0,000
362,266;   70,000;   45,400;    0,000
362,278;   81,000;   58,000;    0,000
362,290;   71,400;   31,600;    0,000
362,302;   60,000;   11,200;    0,000
362,313;   44,400;   29,000;    0,000
362,325;   65,800;   87,000;    0,000
362,337;   49,200;   74,000;    0,000
362,349;   34,400;   80,600;    0,000
362,361;   70,400;   81,200;    0,000
362,372;   66,600;   13,200;    0,000
362,384;   67,600;   75,400;    0,000
362,396;   49,400;   22,400;    0,000
362,408;   67,800;   60,000;    0,000
362,420;   27,200;   56,800;    0,000
362,431;   51,200;   26,800;    0,000
362,443;   51,800;   46,600;    0,000
362,455;   47,600;   53,200;    0,000
362,467;   44,000;   42,200;    0,000
362,478;   64,200;   31,600;    0,000
362,490;    1,200;   44,400;    0,000
362,502;   58,200;   61,000;    0,000
362,514;   35,800;   49,800;    0,000
362,525;   34,800;   -3,800;    0,000
362,537;  -10,600;   34,200;    0,000
362,549;   54,800;   49,800;    0,000
362,561;   29,000;   20,400;    0,000
362,573;   83,600;   72,200;    0,000
362,584;   34,600;   25,200;    0,000
362,596;   52,600;   79,200;    0,000
362,608;   39,000;   65,000;    0,000
362,619;   59,200;   43,400;    0,000
362,631;   38,800;   43,800;    0,000
362,643;   53,800;   62,800;    0,000
362,655;   26,800;   48,600;    0,000
362,666;   59,400;   58,400;    0,000
362,678;    8,200;   17,600;    0,000
362,690;   47,200;   49,200;    0,000
362,702;   10,200;   40,000;    0,000
362,713;   21,800;    6,000;    0,000
362,725;   24,600;   14,400;    0,000
362,737;   23,800;    6,600;    0,000
362,748;   22,600;   53,800;    0,000
362,760;   42,400;   38,800;    0,000
362,772;   37,000;   47,600;    0,000
362,784;   39,400;   21,400;    0,000
362,795;   15,800;   10,200;    0,000
362,807;   -0,800;  -32,800;    0,000
362,819;   23,600;    6,000;    0,000
362,830;   42,800;   27,200;    0,000
362,842;   29,600;   42,800;    0,000
362,854;    0,600;   27,600;    0,000
362,865;   13,200;    0,200;    0,000
362,877;   41,200;   40,600;    0,000
362,889;   41,200;   27,200;    0,000
362,900;   21,800;  -16,200;    0,000
362,912;  -33,000;   16,200;    0,000
362,924;   71,600;   45,000;    0,000
362,935;   28,600;   41,400;    0,000
362,947;   42,600;   14,200;    0,000
362,959;    4,200;   10,600;    0,000
362,970;   41,800;   59,600;    0,000
362,982;   45,600;   49,400;    0,000
362,994;   46,600;   15,400;    0,000
363,005;   -6,600;   16,000;    0,000
363,017;   24,800;   31,200;    0,000
363,029;   11,400;   14,000;    0,000
363,040;   37,800;   30,000;    0,000
363,052;  -21,200;    2,000;    0,000
363,063;   36,000;    1,200;    0,000
363,075;   -1,600;    3,200;    0,000
363,087;   22,400;   25,800;    0,000
363,098;   -5,800;   23,800;    0,000
363,110;   18,400;   17,200;    0,000
363,122;   -8,600;    3,600;    0,000
363,133;   23,400;    0,200;    0,000
363,145;   20,800;   13,000;    0,000
363,156;   58,400;   -9,600;    0,000
363,168;   16,000;  -19,800;    0,000
363,180;   31,800;   22,600;    0,000
363,191;    2,200;    4,200;    0,000
363,203;   35,800;   -1,600;    0,000
363,214;  -30,000;   31,000;    0,000
363,226;  -28,200;   -7,000;    0,000
363,237;   -5,200;   10,600;    0,000
363,249;   25,000;   -0,800;    0,000
363,261;  -20,600;  -24,200;    0,000
363,272;   41,400;   35,400;    0,000
363,284;    1,400;   -6,400;    0,000
363,295;   46,200;   36,000;    0,000
363,307;  -12,200;   17,400;    0,000
363,319;   32,800;   45,600;    0,000
363,330;   42,800;  -26,200;    0,000
363,342;   29,800;   50,600;    0,000
363,353;  -26,400;   15,600;    0,000
363,365;   -3,800;    8,800;    0,000
363,376;   18,400;   26,000;    0,000
363,388;    4,200;   25,600;    0,000
363,399;   12,600;   -8,000;    0,000
363,411;   24,400;   47,600;    0,000
363,422;   11,200;   33,800;    0,000
363,434;   28,800;   20,800;    0,000
363,446;    6,400;   12,400;    0,000
363,457;   33,200;   12,200;    0,000
363,469;  -14,000;   10,200;    0,000
363,480;  -27,000;    5,200;    0,000
363,492;  -35,600;    5,200;    0,000
363,503;    4,000;  -29,000;    0,000
363,515;  -40,600;  -27,000;    0,000
363,526;   25,200;   43,200;    0,000
363,538;   49,400;   12,600;    0,000
363,549;   32,600;   39,800;    0,000
363,561;  -25,800;  -11,400;    0,000
363,572;   37,200;   49,200;    0,000
363,584;    4,400;  -10,400;    0,000
363,595;   27,800;   -5,200;    0,000
363,607;   29,800;   21,400;    0,000
363,618;   42,000;   19,800;    0,000
363,630;  -28,800;  -21,200;    0,000
363,641;   -5,200;   25,200;    0,000
363,653;  -23,000;   -1,400;    0,000
363,664;   13,800;    8,000;    0,000
363,676;    7,200;   26,400;    0,000
363,687;   24,400;   39,600;    0,000
363,699;  -20,200;  -23,400;    0,000
363,710;    9,800;   12,800;    0,000
363,721;  -11,800;   -3,200;    0,000
363,733;   23,600;    0,400;    0,000
363,744;   10,600;    5,200;    0,000
363,756;   -5,000;  -19,200;    0,000
363,767;  -27,000;  -38,400;    0,000
363,779;   35,000;    2,400;    0,000
363,790;  -16,000;   -3,000;    0,000
363,802;   19,000;   10,400;    0,000
363,813;  -22,400;  -30,400;    0,000
363,824;   32,800;    7,800;    0,000
363,836;  -18,000;   -5,600;    0,000
363,847;   97,400;   74,200;    0,000
363,859;    4,800;    6,400;    0,000
363,870;    1,800;    0,200;    0,000
363,882;  -12,400;  -12,600;    0,000
363,893;  -13,600;   -9,800;    0,000
363,904;    8,000;   15,800;    0,000
363,916;   11,200;   -0,400;    0,000
363,927;   13,000;  -12,600;    0,000
363,939;   -8,400;   24,200;    0,000
363,950;  -19,400;    0,800;    0,000
363,962;   35,200;  -11,600;    0,000
363,973;  -13,200;    4,200;    0,000
363,984;   39,600;   27,000;    0,000
363,996;   -5,800;   -0,200;    0,000
364,007;    3,400;   12,000;    0,000
364,018;  -17,200;    7,400;    0,000
364,030;   24,600;   -1,600;    0,000
364,041;  -15,200;   18,400;    0,000
364,053;    8,200;   -7,600;    0,000
364,064;  -11,600;  -32,200;    0,000
364,075;    9,000;    7,600;    0,000
364,087;  -14,000;   14,600;    0,000
364,098;    2,800;   -4,600;    0,000
364,109;  -17,800;   -9,600;    0,000
364,121;   40,400;   18,200;    0,000
364,132;   22,400;   27,400;    0,000
364,144;  -12,200;   -5,400;    0,000
364,155;   -5,600;   12,600;    0,000
364,166;   42,600;   40,200;    0,000
364,178;  -13,200;   29,400;    0,000
364,189;   34,200;   28,000;    0,000
364,200;   14,400;    1,800;    0,000
364,212;   28,800;    8,600;    0,000
364,223;  -25,000;    1,400;    0,000
364,234;   -3,600;   19,400;    0,000
364,246;   -4,000;    4,400;    0,000
364,257;   -2,400;   -7,800;    0,000
364,268;   -1,400;    5,400;    0,000
364,280;   38,200;    4,600;    0,000
364,291;   -8,000;  -11,000;    0,000
364,302;   -0,800;  -12,200;    0,000
364,314;   -9,600;   25,600;    0,000
364,325;  -21,600;   -5,600;    0,000
364,336;  -11,200;    6,400;    0,000
364,347;   -5,400;   43,600;    0,000
364,359;  -14,200;   -6,200;    0,000
364,370;   -4,600;    5,200;    0,000
364,381;  -43,800;   -5,800;    0,000
364,393;   16,200;   37,400;    0,000
364,404;   20,600;   -3,000;    0,000
364,415;    9,200;    1,200;    0,000
364,426;  -21,600;  -12,200;    0,000
364,438;   -2,400;   -9,000;    0,000
364,449;    6,800;  -13,000;    0,000
364,460;    7,000;   14,000;    0,000
364,472;  -29,400;   -7,600;    0,000
364,483;   -7,800;   21,200;    0,000
364,494;    7,800;   14,400;    0,000
364,505;   30,000;  -16,800;    0,000
364,517;   -4,000;   -8,200;    0,000
364,528;   26,800;   30,200;    0,000
364,539;  -10,200;   35,800;    0,000
364,550;    0,000;   54,400;    0,000
364,562;   10,800;  -18,400;    0,000
364,573;    1,000;  -22,600;    0,000
364,584;   35,400;  -29,200;    0,000
364,595;   -0,400;   -1,600;    0,000
364,607;   -1,200;    0,400;    0,000
364,618;   -6,400;  -27,600;    0,000
364,629;   -1,000;   -5,600;    0,000
364,640;   -2,600;   -2,400;    0,000
364,652;  -22,600;   39,200;    0,000
364,663;   19,200;   33,400;    0,000
364,674;  -12,800;   18,200;    0,000
364,685;   19,600;    1,200;    0,000
364,696;   -3,000;  -18,400;    0,000
364,708;   24,800;   10,200;    0,000
364,719;    5,600;   18,000;    0,000
364,730;   14,400;   24,200;    0,000
364,741;  -19,400;    6,600;    0,000
364,752;   33,200;   -0,800;    0,000
364,764;  -25,600;  -12,000;    0,000
364,775;   -9,600;    0,200;    0,000
364,786;   -4,400;   32,000;    0,000
364,797;  -27,000;  -22,600;    0,000
364,808;  -28,600;   -2,800;    0,000
364,820;   26,200;   -1,200;    0,000
364,831;  -44,400;  -15,400;    0,000
364,842;   17,800;   19,600;    0,000
364,853;    0,400;   15,600;    0,000
364,864;  -24,800;  -19,200;    0,000
364,875;  -14,800;    5,400;    0,000
364,887;    7,600;    6,800;    0,000
364,898;   26,000;  -12,600;    0,000
364,909;   18,800;   23,400;    0,000
364,920;   47,200;   -2,800;    0,000
364,931;   31,200;   24,000;    0,000
364,942;   28,000;   64,800;    0,000
364,953;   29,400;   35,600;    0,000
364,965;   37,400;   55,000;    0,000
364,976;   55,600;   45,400;    0,000
364,987;   12,400;   49,400;    0,000
364,998;  -13,000;  -22,800;    0,000
365,009;   22,200;   22,000;    0,000
365,020;    3,200;   28,400;    0,000
365,031;    7,000;  -11,000;    0,000
365,042;   36,800;   32,200;    0,000
365,054;   28,800;    2,800;    0,000
365,065;   46,000;   11,200;    0,000
365,076;   -9,600;   15,800;    0,000
365,087;   49,000;   11,600;    0,000
365,098;  -32,400;   31,400;    0,000
365,109;   24,200;   29,400;    0,000
365,120;  -28,000;   -0,400;    0,000
365,131;   22,600;   36,000;    0,000
365,142;   -0,600;   11,200;    0,000
365,154;   21,800;    9,600;    0,000
365,165;    3,400;    8,600;    0,000
365,176;   15,000;   46,600;    0,000
365,187;  -34,600;  -18,000;    0,000
365,198;   11,600;    6,800;    0,000
365,209;   10,400;   25,200;    0,000
365,220;   23,800;   -2,600;    0,000
365,231;   -5,200;  -13,200;    0,000
365,242;   15,800;   27,800;    0,000
365,253;  -17,200;   12,400;    0,000
365,264;   23,400;  -16,600;    0,000
365,275;  -31,800;   13,200;    0,000
365,286;   32,400;   -0,600;    0,000
365,297;  -27,000;  -33,800;    0,000
365,309;    3,200;    2,600;    0,000
365,320;  -19,800;   31,400;    0,000
365,331;  -18,000;  -15,600;    0,000
365,342;   -3,800;   -4,400;    0,000
365,353;   22,000;   20,000;    0,000
365,364;  -48,800;    2,600;    0,000
365,375;  -16,000;   -0,600;    0,000
365,386;    8,200;  -13,600;    0,000
365,397;   -2,000;    6,000;    0,000
365,408;   48,600;    0,000;    0,000
365,419;  -12,200;    1,000;    0,000
365,430;   -7,400;  -25,000;    0,000
365,441;   27,200;   -3,800;    0,000
365,452;  -39,200;  -14,800;    0,000
365,463;  -25,400;  -15,400;    0,000
365,474;    7,800;    0,200;    0,000
365,485;   16,400;   27,400;    0,000
365,496;   -8,000;   -6,800;    0,000
365,507;   38,400;   22,200;    0,000
365,518;   -7,400;    0,000;    0,000
365,529;   18,200;   34,600;    0,000
365,540;  -27,000;  -16,200;    0,000
365,551;    4,400;   24,600;    0,000
365,562;  -17,600;  -13,000;    0,000
365,573;   -2,400;   11,400;    0,000
365,584;  -21,200;  -10,000;    0,000
365,595;   46,400;    3,000;    0,000
365,606;  -15,000;    8,400;    0,000
365,617;   40,000;  -36,200;    0,000
365,628;  -14,000;  -29,000;    0,000
365,639;   25,000;   25,400;    0,000
365,650;    7,200;   -9,600;    0,000
365,661;   12,600;   24,200;    0,000
365,672;   -1,600;    3,600;    0,000
365,682;  -19,200;   -9,800;    0,000
365,693;  -33,600;  -17,600;    0,000
365,704;  -34,600;  -27,200;    0,000
365,715;  -18,000;    7,800;    0,000
365,726;   16,600;   14,200;    0,000
365,737;  -22,000;  -22,400;    0,000
365,748;    2,400;   -3,600;    0,000
365,759;   29,200;   -6,000;    0,000
365,770;   -8,400;   14,200;    0,000
365,781;   42,800;    2,200;    0,000
365,792;   10,800;  -21,000;    0,000
365,803;   34,800;   35,400;    0,000
365,814;   14,000;  -36,400;    0,000
365,825;  -45,000;   24,000;    0,000
365,836;   38,200;   15,600;    0,000
365,846;  -46,800;   -6,000;    0,000
365,857;   36,200;    5,400;    0,000
365,868;  -25,000;   37,800;    0,000
365,879;   -1,400;   -8,600;    0,000
365,890;   31,800;   18,000;    0,000
365,901;   60,400;   59,600;    0,000
365,912;   -1,200;   20,400;    0,000
365,923;   12,600;   12,200;    0,000
365,934;    7,200;  -19,600;    0,000
365,944;    9,200;   21,200;    0,000
365,955;   13,400;   29,400;    0,000
365,966;   10,000;   24,600;    0,000
365,977;  -32,000;   13,000;    0,000
365,988;    7,800;  -16,600;    0,000
365,999;  -50,800;   13,200;    0,000
366,010;   42,200;  -15,800;    0,000
366,021;  -11,800;  -27,600;    0,000
366,031;   21,400;   40,600;    0,000
366,042;   15,800;  -21,000;    0,000
366,053;   24,200;  -13,800;    0,000
366,064;  -32,400;   18,000;    0,000
366,075;   27,600;   -0,200;    0,000
366,086;  -13,400;   15,000;    0,000
366,096;    8,600;  -19,800;    0,000
366,107;  -17,400;  -10,400;    0,000
366,118;  -12,000;  -11,400;    0,000
366,129;    7,000;    6,400;    0,000
366,140;   14,400;   -1,400;    0,000
366,151;  -33,600;  -15,600;    0,000
366,161;    9,800;  -13,400;    0,000
366,172;   -7,400;   23,800;    0,000
366,183;   16,600;    9,600;    0,000
366,194;   27,000;   16,200;    0,000
366,205;   -0,600;   43,400;    0,000
366,215;  -19,000;    0,400;    0,000
366,226;   17,800;   22,400;    0,000
366,237;    6,200;   10,400;    0,000
366,248;   -2,800;   -6,400;    0,000
366,259;   -1,000;   44,800;    0,000
366,269;   -7,600;   31,400;    0,000
366,280;  -24,600;  -26,600;    0,000
366,291;   -5,000;  -11,000;    0,000
366,302;    0,400;  -24,000;    0,000
366,313;   -6,400;   15,600;    0,000
366,323;    8,200;   -3,000;    0,000
366,334;   -1,600;   -5,800;    0,000
366,345;   -8,800;    1,600;    0,000
366,356;   -5,200;   20,400;    0,000
366,366;  -42,600;  -14,400;    0,000
366,377;   26,000;   11,000;    0,000
366,388;  -19,000;  -30,400;    0,000
366,399;   -7,400;   -2,200;    0,000
366,409;  -37,600;   -7,400;    0,000
366,420;  -19,600;   30,800;    0,000
366,431;    5,000;   11,800;    0,000
366,442;   26,600;   20,400;    0,000
366,452;  -11,000;  -46,200;    0,000
366,463;   45,000;   26,200;    0,000
366,474;  -34,200;    9,600;    0,000
366,485;   18,000;  -37,200;    0,000
366,495;  -21,800;  -27,400;    0,000
366,506;   50,800;   10,600;    0,000
366,517;    7,200;   -2,400;    0,000
366,528;    8,200;  -11,800;    0,000
366,538;   -9,000;    5,200;    0,000
366,549;  -33,600;   11,000;    0,000
366,560;   -9,000;   21,800;    0,000
366,570;   33,400;   43,000;    0,000
366,581;  -30,200;   35,000;    0,000
366,592;    5,600;   36,200;    0,000
366,603;  -17,600;  -11,200;    0,000
366,613;   50,200;    4,200;    0,000
366,624;  -24,400;    6,600;    0,000
366,635;   13,400;   -2,200;    0,000
366,645;  -12,600;    6,600;    0,000
366,656;   -3,600;    7,600;    0,000
366,667;    4,600;    7,800;    0,000
366,677;   42,400;   13,400;    0,000
366,688;  -27,600;  -34,800;    0,000
366,699;   31,000;   47,600;    0,000
366,709;   17,400;  -46,200;    0,000
366,720;   -4,000;   11,400;    0,000
366,731;  -18,600;  -13,800;    0,000
366,741;   42,800;   22,600;    0,000
366,752;    1,400;  -17,400;    0,000
366,763;    1,800;   22,400;    0,000
366,773;  -28,400;  -16,800;    0,000
366,784;   18,200;   -7,000;    0,000
366,795;   14,600;   -3,000;    0,000
366,805;  -15,000;   -7,000;    0,000
366,816;   21,600;   52,200;    0,000
366,827;   20,800;   22,800;    0,000
366,837;   -1,200;    6,800;    0,000
366,848;    0,200;   24,400;    0,000
366,858;  -36,200;   18,200;    0,000
366,869;   13,600;    0,200;    0,000
366,880;  -13,800;   11,400;    0,000
366,890;   19,000;   12,200;    0,000
366,901;   -6,600;  -31,400;    0,000
366,912;   61,200;   33,600;    0,000
366,922;   -4,600;   -1,800;    0,000
366,933;   19,000;   31,400;    0,000
366,943;  -42,800;   -0,200;    0,000
366,954;   16,600;   -0,600;    0,000
366,965;  -19,400;   16,400;    0,000
366,975;  -16,800;   35,600;    0,000
366,986;  -19,600;   10,600;    0,000
366,996;   31,000;    5,000;    0,000
367,007;  -34,200;   -2,000;    0,000
367,018;   43,400;   45,600;    0,000
367,028;  -32,600;   -4,400;    0,000
367,039;   -4,800;   -6,600;    0,000
367,049;   -4,400;   -0,200;    0,000
367,060;   10,000;   40,600;    0,000
367,070;  -13,600;   21,600;    0,000
367,081;   -5,600;   48,200;    0,000
367,092;   15,600;  -30,800;    0,000
367,102;   29,000;    7,000;    0,000
367,113;  -31,800;  -40,400;    0,000
367,123;   24,200;   -2,000;    0,000
367,134;   28,800;   16,600;    0,000
367,144;   20,400;    3,400;    0,000
367,155;   -2,200;   -5,400;    0,000
367,165;   35,400;   21,200;    0,000
367,176;  -29,000;  -28,000;    0,000
367,186;    1,400;   -0,400;    0,000
367,197;   11,000;   12,000;    0,000
367,208;   35,400;   25,400;    0,000
367,218;  -21,200;   -3,800;    0,000
367,229;    7,000;    7,400;    0,000
367,239;   -6,400;   29,000;    0,000
367,250;   -5,200;    9,400;    0,000
367,260;  -25,000;   12,000;    0,000
367,271;   -2,000;  -27,400;    0,000
367,281;   -4,400;  -11,600;    0,000
367,292;   31,200;   15,800;    0,000
367,302;   26,600;    0,000;    0,000
367,313;    3,400;   10,800;    0,000
367,323;  -60,200;   12,800;    0,000
367,334;    8,800;    7,000;    0,000
367,344;  -47,600;  -10,800;    0,000
367,355;   31,600;  -27,600;    0,000
367,365;    1,600;    5,800;    0,000
367,376;   22,800;   -2,200;    0,000
367,386;    9,800;  -10,000;    0,000
367,397;    0,400;   27,400;    0,000
367,407;  -64,400;    0,000;    0,000
367,418;   -0,600;    1,000;    0,000
367,428;  -16,200;   10,200;    0,000
367,438;    0,200;    3,000;    0,000
367,449;  -18,400;    6,000;    0,000
367,459;   11,400;   23,800;    0,000
367,470;  -23,600;  -13,000;    0,000
367,480;   -3,000;   16,800;    0,000
367,491;   10,600;   31,200;    0,000
367,501;    0,200;    5,600;    0,000
367,512;  -19,800;    0,400;    0,000
367,522;   -0,400;   20,600;    0,000
367,533;  -23,200;  -16,000;    0,000
367,543;   23,600;   -0,400;    0,000
367,553;    3,200;  -30,000;    0,000
367,564;   -9,600;  -35,800;    0,000
367,574;  -14,000;   -7,000;    0,000
367,585;   16,000;   29,600;    0,000
367,595;  -32,200;  -21,000;    0,000
367,605;   34,200;   23,000;    0,000
367,616;  -23,600;    2,200;    0,000
367,626;   64,600;   55,200;    0,000
367,637;  -21,800;   24,400;    0,000
367,647;   23,000;  -12,200;    0,000
367,658;    7,600;    7,800;    0,000
367,668;  -26,000;   19,000;    0,000
367,678;   -9,200;   23,600;    0,000
367,689;    1,800;   -7,200;    0,000
367,699;   26,400;    1,000;    0,000
367,710;   32,800;   26,000;    0,000
367,720;   12,200;   -0,800;    0,000
367,730;    1,600;    1,000;    0,000
367,741;  -14,600;  -17,800;    0,000
367,751;   13,200;  -18,600;    0,000
367,761;  -42,000;   23,800;    0,000
367,772;   -1,200;   -8,800;    0,000
367,782;  -10,200;    3,200;    0,000
367,793;   -5,400;    1,800;    0,000
367,803;  -17,000;  -10,000;    0,000
367,813;   -5,400;    6,800;    0,000
367,824;  -34,800;  -11,000;    0,000
367,834;   41,200;   51,200;    0,000
367,844;    3,000;   41,200;    0,000
367,855;    0,600;  -17,000;    0,000
367,865;   -4,600;   23,600;    0,000
367,875;  -12,400;   14,000;    0,000
367,886;  -31,200;    5,600;    0,000
367,896;   14,000;    8,600;    0,000
367,906;  -17,600;  -14,800;    0,000
367,917;   23,600;   22,600;    0,000
367,927;   -1,800;  -25,800;    0,000
367,937;   32,600;   12,800;    0,000
367,948;  -24,600;  -50,600;    0,000
367,958;   12,600;  -18,800;    0,000
367,968;    5,200;   17,200;    0,000
367,979;   21,600;   22,600;    0,000
367,989;    2,200;   -0,600;    0,000
367,999;   -8,800;    9,000;    0,000
368,009;  -29,200;   22,400;    0,000
368,020;   48,400;   64,800;    0,000
368,030;  -13,200;   23,000;    0,000
368,040;   25,000;   10,000;    0,000
368,051;  -46,800;   -4,600;    0,000
368,061;   31,600;    7,200;    0,000
368,071;    5,400;   -9,800;    0,000
368,082;   10,400;   25,600;    0,000
368,092;  -25,200;    7,000;    0,000
368,102;   17,600;   25,600;    0,000
368,112;    1,200;   -2,400;    0,000
368,123;    7,200;   -4,600;    0,000
368,133;  -39,800;   -2,200;    0,000
368,143;   26,200;  -13,800;    0,000
368,153;   -2,400;  -17,400;    0,000
368,164;   36,800;   -3,600;    0,000
368,174;   -0,800;   57,400;    0,000
368,184;   18,600;   18,200;    0,000
368,194;  -10,000;   -8,600;    0,000
368,205;   31,200;    6,400;    0,000
368,215;   25,000;  -13,600;    0,000
368,225;    3,400;  -23,000;    0,000
368,235;  -23,800;   10,000;    0,000
368,246;   10,000;   16,200;    0,000
368,256;  -11,800;  -11,000;    0,000
368,266;   26,000;   32,800;    0,000
368,276;  -13,400;   10,800;    0,000
368,286;   -7,000;    9,000;    0,000
368,297;  -11,400;   12,000;    0,000
368,307;   18,200;  -12,200;    0,000
368,317;  -20,600;  -32,400;    0,000
368,327;   41,600;    4,600;    0,000
368,338;  -32,200;   13,400;    0,000
368,348;   11,000;   23,600;    0,000
368,358;    4,400;   -3,200;    0,000
368,368;  -34,000;   -9,400;    0,000
368,378;   -3,400;   -5,800;    0,000
368,389;   28,000;   39,000;    0,000
368,399;    4,000;   -5,000;    0,000
368,409;   38,800;   38,400;    0,000
368,419;   -7,000;  -18,800;    0,000
368,429;   30,200;   22,200;    0,000
368,439;  -35,400;  -30,800;    0,000
368,450;   38,400;   27,200;    0,000
368,460;   -1,600;   12,600;    0,000
368,470;   12,800;   -2,600;    0,000
368,480;  -25,800;   10,200;    0,000
368,490;   -9,600;  -24,400;    0,000
368,500;   -0,800;    3,200;    0,000
368,511;   29,800;   -9,200;    0,000
368,521;  -36,400;  -19,000;    0,000
368,531;    4,200;  -11,000;    0,000
368,541;   -5,800;  -12,000;    0,000
368,551;   18,000;   20,200;    0,000
368,561;  -29,800;  -40,200;    0,000
368,571;   40,600;    8,400;    0,000
368,582;  -34,600;  -19,200;    0,000
368,592;   -0,800;  -26,400;    0,000
368,602;  -21,800;   12,400;    0,000
368,612;   35,800;   33,800;    0,000
368,622;   -6,200;   -9,800;    0,000
368,632;   36,800;    0,200;    0,000
368,642;  -22,000;    6,800;    0,000
368,652;   26,000;   40,000;    0,000
368,663;  -12,000;    9,000;    0,000
368,673;   31,200;   32,400;    0,000
368,683;   20,000;  -15,400;    0,000
368,693;  -25,200;   -6,600;    0,000
368,703;   -3,600;   -2,400;    0,000
368,713;   12,200;   20,200;    0,000
368,723;  -23,800;   -5,600;    0,000
368,733;   22,600;  -35,800;    0,000
368,743;    2,200;  -10,400;    0,000
368,753;   20,400;    7,400;    0,000
368,763;   27,400;   -5,000;    0,000
368,774;   52,200;   15,600;    0,000
368,784;  -18,200;    3,000;    0,000
368,794;   27,800;   15,600;    0,000
368,804;    1,200;   -2,800;    0,000
368,814;   15,600;  -18,200;    0,000
368,824;   -0,200;   -1,400;    0,000
368,834;   -5,400;   46,200;    0,000
368,844;    1,200;   20,800;    0,000
368,854;   10,800;   19,800;    0,000
368,864;  -18,400;    4,400;    0,000
368,874;   -9,200;   14,600;    0,000
368,884;  -29,000;  -44,600;    0,000
368,894;    1,800;    5,600;    0,000
368,904;  -43,000;    2,000;    0,000
368,914;   21,800;    0,800;    0,000
368,924;  -25,000;    3,400;    0,000
368,934;   -2,800;   20,400;    0,000
368,944;   28,800;   32,000;    0,000
368,954;    8,800;   -7,800;    0,000
368,964;   17,800;   22,400;    0,000
368,974;   -1,600;  -29,800;    0,000
368,984;   -8,200;   15,000;    0,000
368,995;   34,200;  -12,000;    0,000
369,005;  -59,600;  -16,200;    0,000
369,014;   12,600;   35,800;    0,000
369,025;  -49,200;   11,400;    0,000
369,035;   35,200;   12,800;    0,000
369,044;   13,000;   -3,200;    0,000
369,055;  -12,400;  -20,600;    0,000
369,064;    1,400;    4,000;    0,000
369,074;   53,600;    0,000;    0,000
369,084;  -43,600;    2,800;    0,000
369,094;  -44,600;   -3,400;    0,000
369,104;   -2,800;   14,200;    0,000
369,114;   29,200;   62,000;    0,000
369,124;    5,200;  -21,600;    0,000
369,134;   -0,200;  -13,000;    0,000
369,144;  -12,600;   28,400;    0,000
369,154;   14,000;   -8,800;    0,000
369,164;    1,600;   -1,400;    0,000
369,174;    9,600;  -18,800;    0,000
369,184;   -4,000;   15,000;    0,000
369,194;   16,200;   26,200;    0,000
369,204;    9,600;   -2,600;    0,000
369,214;   22,200;  -23,200;    0,000
369,224;  -51,400;   11,800;    0,000
369,234;   25,400;   -8,400;    0,000
369,244;    3,600;    5,200;    0,000
369,254;   35,800;  -16,600;    0,000
369,264;  -13,000;  -20,000;    0,000
369,274;    7,400;    7,600;    0,000
369,284;   11,200;    4,600;    0,000
369,293;    6,800;   24,000;    0,000
369,303;    7,800;  -13,200;    0,000
369,313;   28,600;   15,400;    0,000
369,323;   45,400;   11,600;    0,000
369,333;    4,600;   23,600;    0,000
369,343;  -29,200;   26,000;    0,000
369,353;  -50,800;  -22,400;    0,000
369,363;  -13,600;   23,000;    0,000
369,373;    1,000;   10,400;    0,000
369,383;   10,400;   27,800;    0,000
369,392;   19,200;   47,600;    0,000
369,402;   17,400;  -45,200;    0,000
369,412;   31,600;  -48,800;    0,000
369,422;  -16,200;    6,800;    0,000
369,432;   37,200;  -44,600;    0,000
369,442;    3,400;  -25,000;    0,000
369,452;    4,400;  -33,000;    0,000
369,462;  -53,200;   19,400;    0,000
369,471;  -24,600;   33,600;    0,000
369,481;  -42,200;  -22,200;    0,000
369,491;   32,400;    1,600;    0,000
369,501;  -17,600;  -27,400;    0,000
369,511;  -10,800;    4,400;    0,000
369,521;  -21,400;    5,400;    0,000
369,531;   54,800;   -5,600;    0,000
369,540;   20,800;   20,200;    0,000
369,550;  -25,000;  -10,800;    0,000
369,560;   23,200;   24,800;    0,000
369,570;   32,000;   24,400;    0,000
369,580;  -15,600;  -12,800;    0,000
369,590;   44,400;   18,800;    0,000
369,599;   13,400;  -23,600;    0,000
369,609;  -23,000;   13,000;    0,000
369,619;  -11,000;  -17,000;    0,000
369,629;    1,000;   15,800;    0,000
369,639;    0,800;    5,800;    0,000
369,649;   -5,200;   16,200;    0,000
369,658;   37,200;   22,000;    0,000
369,668;  -15,600;   13,800;    0,000
369,678;  -19,400;  -11,000;    0,000
369,688;   -4,600;    6,200;    0,000
369,698;  -57,600;  -21,400;    0,000
369,707;   11,400;   -7,800;    0,000
369,717;  -31,200;    6,000;    0,000
369,727;    6,400;    7,400;    0,000
369,737;   15,200;    7,200;    0,000
369,747;    3,000;  -11,000;    0,000
369,756;  -36,200;   -6,400;    0,000
369,766;    3,400;  -30,600;    0,000
369,776;   -4,200;   15,000;    0,000
369,786;   41,400;   -2,600;    0,000
369,795;   -8,800;   23,000;    0,000
369,805;    9,000;    3,600;    0,000
369,815;  -10,800;  -10,200;    0,000
369,825;   32,400;   10,200;    0,000
369,834;  -17,600;   14,800;    0,000
369,844;   47,000;   27,800;    0,000
369,854;  -15,600;   14,200;    0,000
369,864;   40,000;    9,600;    0,000
369,873;   17,600;    5,200;    0,000
369,883;   16,600;   -4,400;    0,000
369,893;  -37,600;  -16,200;    0,000
369,903;   -4,000;    2,200;    0,000
369,912;  -12,600;    5,800;    0,000
369,922;   31,000;   25,600;    0,000
369,932;   -2,000;   -3,600;    0,000
369,942;  -18,200;   19,600;    0,000
369,951;  -22,000;   -3,600;    0,000
369,961;   16,800;   -7,400;    0,000
369,971;  -32,400;   18,800;    0,000
369,980;   13,600;  -26,200;    0,000
369,990;  -14,200;    3,400;    0,000
370,000;   27,000;   21,000;    0,000
370,009;  -42,800;  -18,600;    0,000
370,019;    7,400;   -2,200;    0,000
370,029;  -31,200;   32,200;    0,000
370,039;   30,600;    8,800;    0,000
370,048;  -31,600;    4,600;    0,000
370,058;    7,600;    9,200;    0,000
370,068;   -9,400;   -4,200;    0,000
370,077;  -27,000;   24,800;    0,000
370,087;    8,400;  -40,400;    0,000
370,097;   10,400;   -0,600;    0,000
370,106;   14,200;   -8,400;    0,000
370,116;   -7,400;  -10,600;    0,000
370,126;    6,200;   -2,800;    0,000
370,135;   15,600;    8,200;    0,000
370,145;    4,200;  -12,000;    0,000
370,155;   13,800;    6,600;    0,000
370,164;   15,600;    6,200;    0,000
370,174;   27,000;   40,600;    0,000
370,184;  -67,600;   21,800;    0,000
370,193;   -7,400;   18,600;    0,000
370,203;   -7,200;  -10,600;    0,000
370,212;   10,000;    7,000;    0,000
370,222;  -32,600;   -3,800;    0,000
370,232;    5,000;   -7,200;    0,000
370,241;   23,200;  -11,400;    0,000
370,251;   20,400;   26,600;    0,000
370,261;    0,400;    1,000;    0,000
370,270;   -9,000;   21,800;    0,000
370,280;  -23,800;    0,400;    0,000
370,289;  -16,400;  -16,200;    0,000
370,299;  -25,800;    1,400;    0,000
370,309;   16,400;   12,800;    0,000
370,318;   -5,800;   -1,800;    0,000
370,328;   11,200;   12,600;    0,000
370,337;  -34,400;  -11,600;    0,000
370,347;   34,800;   26,200;    0,000
370,357;  -13,000;    0,800;    0,000
370,366;   -7,400;   21,800;    0,000
370,376;  -42,600;  -21,400;    0,000
370,385;   31,000;    7,400;    0,000
370,395;  -25,600;  -13,000;    0,000
370,405;  -11,600;   15,200;    0,000
370,414;  -45,200;   21,000;    0,000
370,424;  -19,800;   13,600;    0,000
370,433;  -26,200;    8,600;    0,000
370,443;   10,800;   -7,800;    0,000
370,452;  -15,400;  -11,800;    0,000
370,462;    1,600;  -29,200;    0,000
370,472;    2,400;   -2,400;    0,000
370,481;   20,400;   22,000;    0,000
370,491;   -3,200;  -10,800;    0,000
370,500;   15,400;  -11,600;    0,000
370,510;  -64,200;   19,000;    0,000
370,519;   63,200;    4,400;    0,000
370,529;  -40,400;  -28,600;    0,000
370,538;   35,600;   25,200;    0,000
370,548;   -5,000;  -11,000;    0,000
370,557;    8,400;  -26,400;    0,000
370,567;  -22,400;   29,200;    0,000
370,576;   22,000;   20,200;    0,000
370,586;  -19,600;  -26,200;    0,000
370,595;   25,800;  -33,800;    0,000
370,605;  -35,200;  -21,400;    0,000
370,615;   39,600;   25,400;    0,000
370,624;    7,600;  -32,200;    0,000
370,634;   13,600;  -11,400;    0,000
370,643;   19,200;  -26,800;    0,000
370,653;   16,200;   21,200;    0,000
370,662;  -34,200;  -21,600;    0,000
370,672;   21,600;   10,600;    0,000
370,681;   -7,400;  -12,000;    0,000
370,690;    6,000;   -7,400;    0,000
370,700;  -11,800;  -15,400;    0,000
370,709;   23,200;  -15,200;    0,000
370,719;  -12,400;   -9,200;    0,000
370,728;   10,600;   20,000;    0,000
370,738;    9,200;   14,400;    0,000
370,747;   14,400;   22,200;    0,000
370,757;  -50,800;    0,000;    0,000
370,766;  -13,800;   -0,200;    0,000
370,776;  -11,000;    5,400;    0,000
370,785;   28,400;   49,200;    0,000
370,795;   11,000;   -4,800;    0,000
370,804;  -17,600;    7,800;    0,000
370,814;  -21,800;   24,200;    0,000
370,823;    7,400;   20,000;    0,000
370,832;  -15,600;   12,600;    0,000
370,842;   31,400;   -2,400;    0,000
370,851;  -24,600;   -7,600;    0,000
370,861;  -32,400;  -13,800;    0,000
370,870;  -16,800;  -31,200;    0,000
370,880;   22,200;   34,200;    0,000
370,889;  -21,400;   42,200;    0,000
370,898;   44,800;    1,000;    0,000
370,908;  -20,400;    2,200;    0,000
370,917;   28,000;   -0,400;    0,000
370,927;  -27,800;  -22,000;    0,000
370,936;    7,800;   -7,000;    0,000
370,945;   18,200;   -5,400;    0,000
370,955;   18,200;   40,600;    0,000
370,964;  -20,000;   -4,200;    0,000

